PacketCounter,SampleTimeFine,Euler_X,Euler_Y,Euler_Z,Acc_X,Acc_Y,Acc_Z,Gyr_X,Gyr_Y,Gyr_Z,Mag_X,Mag_Y,Mag_Z,
0,1699368753,0.311927557,0.332323015,-0.513205171,0,0,0,0,0,0,0.01171875,0.209472656,-1.023925781, 
1,1699377086,0.32158345,0.320182145,-0.510807574,-0.05053141,0.0342636,9.40834713,1.157315016,-1.455708146,0.295088768,0.014892578,0.210449219,-1.022216797, 
2,1699385419,0.332024515,0.30793488,-0.509061396,-0.04859348,0.048692301,9.426654816,1.252344012,-1.468873978,0.217989966,0.012939453,0.214111328,-1.020263672, 
3,1699393752,0.337165654,0.300348759,-0.485532552,-0.052001018,0.059647635,9.437641144,1.199886084,-1.396769643,0.213072002,0.012939453,0.211914063,-1.024414063, 
4,1699402085,0.348250091,0.288656265,-0.483377129,-0.030087799,0.059461344,9.430290222,1.327803493,-1.401661992,0.267092407,0.012939453,0.212402344,-1.023681641, 
5,1699410418,0.357325405,0.276387483,-0.474094689,-0.044570457,0.066606909,9.432131767,1.227805495,-1.563902736,0.314786136,0.011962891,0.2109375,-1.022216797, 
6,1699418751,0.367759466,0.264171124,-0.472352743,-0.018574048,0.0720888,9.448562622,1.250704765,-1.463981628,0.219629243,0.015869141,0.2109375,-1.023193359, 
7,1699427084,0.382099718,0.243847221,-0.469470441,-0.023973595,0.077320918,9.404616356,1.227805614,-1.51966691,0.285278559,0.014648438,0.207519531,-1.025878906, 
8,1699435417,0.392768383,0.230758846,-0.466851443,-0.054854959,0.080852874,9.428483009,1.278675318,-1.568795085,0.326235682,0.014892578,0.213867188,-1.023193359, 
9,1699443750,0.412133396,0.203816831,-0.431358784,-0.056315508,0.073551804,9.42851162,1.242559195,-1.473766088,0.290119588,0.014892578,0.213378906,-1.022216797, 
10,1699452083,0.421988636,0.190977588,-0.428684473,-0.054276414,0.055012863,9.42489624,1.180342317,-1.537648082,0.332895398,0.011474609,0.212402344,-1.021728516, 
11,1699460416,0.440221995,0.180568546,-0.394193023,-0.05199974,0.078869864,9.454139709,1.162232995,-1.367210984,0.272061616,0.011962891,0.212890625,-1.022705078, 
12,1699468749,0.450792432,0.167983681,-0.391747653,-0.044815842,0.065646283,9.437667847,1.267174602,-1.508191586,0.304873407,0.014892578,0.212890625,-1.023681641, 
13,1699477082,0.464498073,0.163646579,-0.378839552,-0.040990185,0.07112889,9.404697418,1.257287621,-1.34103322,0.245627716,0.014892578,0.211914063,-1.025390625, 
14,1699485415,0.47473374,0.151299134,-0.376642853,-0.013409544,0.094725065,9.428338051,1.227805614,-1.478684187,0.27541706,0.012939453,0.212890625,-1.021728516, 
15,1699493748,0.486614108,0.146148667,-0.335633457,-0.031647027,0.09281633,9.430243492,1.365456462,-1.449253321,0.257051647,0.013427734,0.211425781,-1.025390625, 
16,1699502081,0.496823639,0.133763447,-0.33345595,-0.011233314,0.081799939,9.426545143,1.224501252,-1.485241413,0.273803353,0.013427734,0.214111328,-1.019287109, 
17,1699510414,0.509072781,0.124935046,-0.304549992,-0.036615919,0.101736538,9.415596008,1.137643337,-1.495025873,0.282179207,0.012939453,0.2109375,-1.025390625, 
18,1699518747,0.519158423,0.112637356,-0.301889688,-0.041825868,0.083312042,9.452314377,1.209875464,-1.472050071,0.331179202,0.012939453,0.2109375,-1.025390625, 
19,1699527080,0.531805396,0.102889933,-0.27685079,-0.050867412,0.061073087,9.423156738,1.16868794,-1.485318303,0.228030756,0.015869141,0.214599609,-1.020751953, 
20,1699535413,0.541694164,0.089809015,-0.274498969,-0.067250639,0.068046354,9.410405159,1.186822891,-1.5671556,0.296984226,0.012939453,0.211914063,-1.021240234, 
21,1699543746,0.552579701,0.081997603,-0.231249258,-0.052321706,0.071588084,9.417653084,1.246145248,-1.493181825,0.414732873,0.013427734,0.215576172,-1.018310547, 
22,1699552079,0.562422752,0.07039763,-0.229136363,-0.086718082,0.051537488,9.43075943,1.180265427,-1.390186787,0.26547873,0.011230469,0.208496094,-1.022216797, 
23,1699560412,0.571177661,0.064795442,-0.195272267,-0.070257522,0.060327798,9.425169945,1.206596851,-1.509728551,0.321420223,0.014892578,0.215576172,-1.024658203, 
24,1699568745,0.581916809,0.052933604,-0.192459717,-0.050013859,0.060171023,9.414077759,1.288690567,-1.419566512,0.352106035,0.012451172,0.210449219,-1.023925781, 
25,1699577078,0.588149011,0.050908443,-0.159629583,-0.060616758,0.056573048,9.43799305,1.170608997,-1.409756184,0.322931468,0.010986328,0.211425781,-1.023925781, 
26,1699585411,0.598179579,0.038740378,-0.157127857,-0.049451929,0.078350686,9.452486992,1.203318357,-1.457296252,0.314760506,0.013916016,0.212402344,-1.022705078, 
27,1699593744,0.603854835,0.035876136,-0.144321531,-0.024000062,0.08515545,9.402855873,1.263793588,-1.526326656,0.278695673,0.012451172,0.210449219,-1.021728516, 
28,1699602077,0.614006698,0.023893198,-0.142032966,-0.029010478,0.103583246,9.426608086,1.217995167,-1.436061978,0.288403422,0.012695313,0.210449219,-1.019775391, 
29,1699610410,0.620230198,0.021465814,-0.122253515,-0.030726338,0.098052658,9.433981895,1.283772707,-1.362241745,0.330615729,0.013427734,0.21484375,-1.024658203, 
30,1699618743,0.63098228,0.010045341,-0.121231295,-0.052562248,0.083476223,9.447049141,1.28961277,-1.369362712,0.13720265,0.015380859,0.211914063,-1.021240234, 
31,1699627076,0.63692081,0.006555533,-0.093960278,-0.043541055,0.073921368,9.401286125,1.127781987,-1.37376821,0.257435858,0.014892578,0.215087891,-1.023681641, 
32,1699635409,0.646684527,-0.005321016,-0.092540808,-0.054434247,0.071866617,9.414221764,1.171761513,-1.423229218,0.185280576,0.015869141,0.211914063,-1.021240234, 
33,1699643742,0.652314723,-0.009254778,-0.050229423,-0.070620775,0.057108711,9.434604645,1.112951159,-1.436062098,0.254438996,0.011962891,0.212890625,-1.024902344, 
34,1699652075,0.662380099,-0.021784052,-0.047697388,-0.072466679,0.065881699,9.429103851,1.208261967,-1.499867082,0.321471453,0.011474609,0.212402344,-1.023681641, 
35,1699660408,0.668884337,-0.024516063,-0.013833662,-0.072432682,0.047503352,9.416437149,1.295017242,-1.344439983,0.253388822,0.014892578,0.211425781,-1.020263672, 
36,1699668741,0.679133475,-0.036157969,-0.011415656,-0.046597093,0.051109482,9.432705879,1.229598522,-1.395027995,0.306282192,0.013427734,0.213378906,-1.023193359, 
37,1699677074,0.684474349,-0.039466485,0.034744874,-0.048271172,0.069253966,9.441773415,1.244454741,-1.483397126,0.354078382,0.011962891,0.212890625,-1.023193359, 
38,1699685407,0.694313526,-0.051425707,0.038130447,-0.017119035,0.083538145,9.412124634,1.180905819,-1.430631638,0.423031867,0.012939453,0.213623047,-1.020263672, 
39,1699693740,0.699273705,-0.055510204,0.07011833,-0.009579253,0.090689681,9.424841881,1.250448585,-1.544538379,0.226417005,0.014404297,0.213378906,-1.023681641, 
40,1699702073,0.709740758,-0.067945868,0.071468674,-0.012849064,0.083396554,9.435935974,1.255187035,-1.490620375,0.180285782,0.010498047,0.2109375,-1.022705078, 
41,1699710406,0.714417219,-0.072134726,0.079774387,-0.019883135,0.090648562,9.43413353,1.176910043,-1.436138868,0.259126395,0.013916016,0.213867188,-1.025878906, 
42,1699718739,0.72500509,-0.084495708,0.081241086,-0.032780904,0.075724274,9.425245285,1.271657228,-1.480733514,0.193272218,0.009521484,0.213378906,-1.024414063, 
43,1699727072,0.729762375,-0.089706123,0.105279036,-0.052729428,0.062747501,9.414587021,1.15851891,-1.472485542,0.188866556,0.010986328,0.212890625,-1.024414063, 
44,1699735405,0.739838004,-0.101545371,0.107585818,-0.046932973,0.068201423,9.432825089,1.209901094,-1.418004036,0.293347031,0.013427734,0.211425781,-1.022216797, 
45,1699743738,0.744604826,-0.106216878,0.150477424,-0.076261625,0.069775999,9.414832115,1.182109714,-1.401534081,0.30320847,0.011962891,0.215576172,-1.023681641, 
46,1699752071,0.755515456,-0.118484616,0.152916595,-0.079846188,0.065974824,9.427758217,1.309950471,-1.468873978,0.311046481,0.011474609,0.212402344,-1.026855469, 
47,1699760404,0.761144459,-0.123405993,0.15162316,-0.081709139,0.049330421,9.411480904,1.303546906,-1.467080951,0.338940382,0.015380859,0.211914063,-1.021240234, 
48,1699768737,0.771073103,-0.135276288,0.154671028,-0.073820986,0.071464635,9.433221817,1.192355514,-1.420847297,0.383585989,0.013427734,0.213867188,-1.023681641, 
49,1699777070,0.776530862,-0.139710352,0.202202708,-0.052078806,0.072839193,9.411028862,1.31963253,-1.473868489,0.2880961,0.010986328,0.2109375,-1.0234375, 
50,1699785403,0.786991537,-0.15213497,0.204310805,-0.055333078,0.096695609,9.420040131,1.255596876,-1.488648057,0.272112817,0.013916016,0.212890625,-1.023681641, 
51,1699793736,0.791769624,-0.15722923,0.236459121,-0.002024368,0.112844229,9.417469978,1.239383101,-1.568743825,0.320139527,0.011962891,0.212890625,-1.026367188, 
52,1699802069,0.802065134,-0.170526147,0.238758758,-0.014054604,0.109462529,9.457958221,1.237590194,-1.593410254,0.2956779,0.015380859,0.209960938,-1.022705078, 
53,1699810402,0.807341099,-0.175182372,0.266697079,-0.017787822,0.083499894,9.425322533,1.24909091,-1.477147222,0.278644443,0.011962891,0.213378906,-1.024169922, 
54,1699818735,0.817040443,-0.187817648,0.269690901,-0.041510694,0.074104495,9.414749146,1.166049719,-1.512622952,0.379282743,0.016357422,0.212890625,-1.022216797, 
55,1699827068,0.82230562,-0.193347931,0.27839911,-0.021077745,0.073904179,9.421862602,1.223015666,-1.527786493,0.315067917,0.012939453,0.217041016,-1.023681641, 
56,1699835401,0.832294285,-0.206066057,0.280233383,-0.0558859,0.057153452,9.400531769,1.20121789,-1.524866581,0.239787638,0.010986328,0.213378906,-1.025390625, 
57,1699843734,0.837426841,-0.210866705,0.402138531,-0.07002148,0.044536553,9.422860146,1.214383602,-1.420053124,0.222754195,0.013916016,0.212890625,-1.021728516, 
58,1699852067,0.847287834,-0.223836541,0.404598147,-0.090198882,0.03868537,9.41408062,1.186950922,-1.555552483,0.315452099,0.015380859,0.210449219,-1.021728516, 
59,1699860400,0.853116691,-0.228802025,0.444878012,-0.080741897,0.042348862,9.424986839,1.336742759,-1.461932421,0.389426023,0.015380859,0.211914063,-1.025878906, 
60,1699868733,0.863723695,-0.24109368,0.448143065,-0.064033262,0.055086102,9.422828674,1.276190758,-1.471563339,0.409507543,0.013916016,0.214355469,-1.025146484, 
61,1699877066,0.868648589,-0.246678606,0.523482502,-0.047128595,0.064203657,9.437196732,1.2718364,-1.583856106,0.269218415,0.011962891,0.212402344,-1.023193359, 
62,1699885399,0.878850579,-0.258772731,0.525965333,-0.04697828,0.073165841,9.416994095,1.228061676,-1.449074149,0.316271752,0.015380859,0.212890625,-1.021728516, 
63,1699893732,0.883153021,-0.263378382,0.552757978,-0.01730019,0.093200877,9.429203987,1.211873651,-1.468540907,0.34603554,0.013427734,0.214599609,-1.022216797, 
64,1699902065,0.893452704,-0.275310367,0.555395126,-0.028090954,0.093133099,9.431229591,1.239690542,-1.430964828,0.332459956,0.012939453,0.211914063,-1.025390625, 
65,1699910398,0.898073435,-0.279929996,0.632661462,-0.009886786,0.101887524,9.412586212,1.239024758,-1.452813745,0.245730177,0.014892578,0.212402344,-1.021728516, 
66,1699918731,0.908065259,-0.292159855,0.634989381,-0.008012613,0.086984783,9.405442238,1.203292847,-1.467234731,0.295242518,0.011474609,0.211425781,-1.023925781, 
67,1699927064,0.91249609,-0.296663254,0.671152651,-0.031204149,0.105546668,9.429404259,1.193482399,-1.408244967,0.286789775,0.011962891,0.210449219,-1.021728516, 
68,1699935397,0.922304988,-0.308738708,0.672902405,-0.065738849,0.070852451,9.446889877,1.1815207,-1.449586391,0.224803329,0.010498047,0.213378906,-1.023193359, 
69,1699943730,0.9277156,-0.313585371,0.696811557,-0.069709487,0.083196476,9.42119503,1.292993665,-1.425201535,0.222190678,0.010986328,0.212890625,-1.024414063, 
70,1699952063,0.937809944,-0.325954497,0.69813782,-0.080576941,0.064774223,9.419834137,1.215484977,-1.486035466,0.175623983,0.015380859,0.211425781,-1.025878906, 
71,1699960396,0.942446887,-0.33103472,0.722046435,-0.076694764,0.040885758,9.425645828,1.202882767,-1.4741503,0.236278504,0.013183594,0.208007813,-1.026855469, 
72,1699968729,0.952811718,-0.344077885,0.725022912,-0.063516051,0.051744834,9.439997673,1.249731302,-1.565106511,0.374236763,0.009521484,0.212890625,-1.024902344, 
73,1699977062,0.958080471,-0.349136055,0.741135955,-0.052387781,0.0588676,9.428799629,1.301728249,-1.495154023,0.307767808,0.013916016,0.215576172,-1.022705078, 
74,1699985395,0.968136191,-0.360900223,0.744170785,-0.030461129,0.076780304,9.404445648,1.212309003,-1.412548184,0.378437489,0.013916016,0.211914063,-1.024169922, 
75,1699993728,0.972713053,-0.365884542,0.788995743,-0.015252387,0.084212422,9.431601524,1.234874964,-1.493130445,0.347649187,0.013916016,0.212402344,-1.024169922, 
76,1700002061,0.982623458,-0.378366172,0.791597188,-0.016631305,0.098853245,9.440627098,1.195352316,-1.498125196,0.326722354,0.012695313,0.209472656,-1.0234375, 
77,1700010394,0.988201678,-0.382533461,0.810971379,-0.04022713,0.089862764,9.450350761,1.351573467,-1.376867414,0.358970672,0.012451172,0.212890625,-1.023193359, 
78,1700018727,0.998274446,-0.395105571,0.813251436,-0.01271845,0.084067948,9.442681313,1.216304898,-1.511547089,0.288941383,0.012939453,0.213378906,-1.022705078, 
79,1700027060,1.002951622,-0.398385733,0.843886614,-0.020042298,0.082174726,9.43006897,1.232134342,-1.256967306,0.359098762,0.014404297,0.212402344,-1.022705078, 
80,1700035393,1.012896061,-0.410226494,0.846284807,-0.029337343,0.08914867,9.424679756,1.200167894,-1.422922134,0.301594824,0.010986328,0.214355469,-1.024169922, 
81,1700043726,1.017675877,-0.415178448,0.88192898,-0.051375411,0.063360348,9.421847343,1.242303252,-1.443054795,0.248906344,0.011962891,0.212402344,-1.024414063, 
82,1700052059,1.027246118,-0.427160472,0.884467423,-0.076912306,0.039484017,9.420902252,1.157673717,-1.440749407,0.318474561,0.011474609,0.211425781,-1.024414063, 
83,1700060392,1.031269073,-0.432552844,0.912431121,-0.058313675,0.064799398,9.423908234,1.152704716,-1.493181944,0.322214305,0.013916016,0.213867188,-1.025878906, 
84,1700068725,1.041527748,-0.44444865,0.914997876,-0.050908297,0.059101999,9.422096252,1.239664912,-1.431067467,0.32093358,0.013427734,0.213378906,-1.023681641, 
85,1700077058,1.046533823,-0.449050426,0.964471936,-0.03662869,0.054918054,9.398139,1.288434386,-1.415135145,0.272804409,0.012695313,0.208007813,-1.024414063, 
86,1700085391,1.056563377,-0.461151958,0.967258751,-0.032323536,0.077097885,9.419753075,1.213666677,-1.455400825,0.347623616,0.014892578,0.209960938,-1.021728516, 
87,1700093724,1.060807347,-0.466340244,0.985864103,-0.032221626,0.087798193,9.414135933,1.210208416,-1.486624479,0.333151519,0.010742188,0.208984375,-1.025390625, 
88,1700102057,1.070980668,-0.478046536,0.987522006,-0.01488867,0.097326852,9.444839478,1.230469227,-1.410627007,0.209357932,0.014404297,0.211425781,-1.023193359, 
89,1700110390,1.074588656,-0.483441323,0.995969951,-0.039405551,0.090939403,9.401526451,1.131547213,-1.50447762,0.340630889,0.014404297,0.212890625,-1.024169922, 
90,1700118723,1.084826589,-0.495891482,0.998613179,-0.025803071,0.078432634,9.438149452,1.239664793,-1.499815702,0.329693586,0.015380859,0.213378906,-1.024658203, 
91,1700127056,1.089847803,-0.501351774,0.98841548,-0.044298224,0.074446909,9.420326233,1.293121815,-1.50703907,0.266913116,0.012939453,0.212890625,-1.025390625, 
92,1700135389,1.099825263,-0.513661742,0.990526855,-0.054833002,0.050822005,9.432005882,1.207929015,-1.483909607,0.265939832,0.014404297,0.209960938,-1.022216797, 
93,1700143722,1.1044209,-0.519173384,1.002673745,-0.06962055,0.059592195,9.417586327,1.248437762,-1.510881305,0.383829325,0.015380859,0.209960938,-1.025878906, 
94,1700152055,1.114957094,-0.5313676,1.005273223,-0.060133584,0.04680898,9.424996376,1.275755286,-1.470461965,0.32580024,0.014404297,0.211425781,-1.022216797, 
95,1700160388,1.119406581,-0.536769271,1.056609154,-0.060313258,0.046373766,9.40677166,1.241406798,-1.509575129,0.341220051,0.012451172,0.213378906,-1.025390625, 
96,1700168721,1.129733443,-0.549581647,1.059109688,-0.057989348,0.048273332,9.419588089,1.252523065,-1.545895815,0.315195948,0.011962891,0.2109375,-1.023925781, 
97,1700177054,1.13391602,-0.555402815,1.089188933,-0.05232447,0.060774583,9.410167694,1.225730658,-1.57256031,0.264915228,0.014404297,0.214355469,-1.024658203, 
98,1700185387,1.143607497,-0.567760468,1.091461062,-0.025952714,0.084611848,9.42206955,1.175321937,-1.491900921,0.286072582,0.013427734,0.212890625,-1.025390625, 
99,1700193720,1.147115707,-0.572763741,1.1466465,-0.013470739,0.078400396,9.398162842,1.156610608,-1.481258392,0.373071313,0.013427734,0.216064453,-1.025146484, 
100,1700202053,1.157143354,-0.585396767,1.149042249,-0.016815547,0.08013647,9.405594826,1.218021035,-1.524661899,0.30062151,0.013427734,0.210449219,-1.022216797, 
101,1700210386,1.161113977,-0.590303361,1.162422538,-0.02205806,0.087343596,9.403814316,1.211694121,-1.465569615,0.308356941,0.015869141,0.212402344,-1.023681641, 
102,1700218719,1.171445847,-0.602621794,1.163850784,-0.039224852,0.078976989,9.45022583,1.252856374,-1.491414547,0.183513194,0.014892578,0.211425781,-1.024169922, 
103,1700227052,1.176118255,-0.608301759,1.198298097,-0.031057799,0.072347201,9.400771141,1.293300986,-1.551172256,0.290196478,0.012451172,0.212890625,-1.024902344, 
104,1700235385,1.186071515,-0.621196389,1.200325131,-0.041375741,0.067100324,9.415836334,1.210900187,-1.559522629,0.256821126,0.012451172,0.213378906,-1.022705078, 
105,1700243718,1.190554619,-0.625951707,1.237229109,-0.050032653,0.063660301,9.427166939,1.273783088,-1.443003535,0.282845169,0.014404297,0.210449219,-1.023681641, 
106,1700252051,1.20017314,-0.637113154,1.239272118,-0.06620051,0.063781865,9.429458618,1.172043324,-1.352867007,0.25525865,0.012939453,0.2109375,-1.025878906, 
107,1700260384,1.204023361,-0.64235878,1.27474916,-0.060348701,0.067372575,9.445810318,1.205034494,-1.508217573,0.305565059,0.011962891,0.210449219,-1.025878906, 
108,1700268717,1.214566112,-0.654788256,1.277554274,-0.081455305,0.070033528,9.398703575,1.284284949,-1.503043294,0.348878711,0.016357422,0.2109375,-1.024902344, 
109,1700277050,1.21848166,-0.659756958,1.299462676,-0.062482268,0.064735085,9.414938927,1.219532132,-1.488852978,0.277338117,0.014892578,0.212402344,-1.024658203, 
110,1700285383,1.22911334,-0.671893597,1.302319169,-0.063834339,0.06856776,9.429643631,1.295888186,-1.468617678,0.353309959,0.015380859,0.213378906,-1.025878906, 
111,1700293716,1.232713103,-0.675981402,1.328498721,-0.0430988,0.052318584,9.444205284,1.188308358,-1.39881897,0.257154077,0.015380859,0.2109375,-1.020751953, 
112,1700302049,1.242537975,-0.688299358,1.331886292,-0.065405384,0.062769018,9.428129196,1.201576471,-1.490646005,0.418626219,0.012939453,0.216064453,-1.025146484, 
113,1700310382,1.246245742,-0.692884803,1.361044884,-0.0426182,0.095824391,9.443463326,1.209568262,-1.467670083,0.264172435,0.015380859,0.209960938,-1.021728516, 
114,1700318715,1.256476998,-0.704833746,1.363574743,-0.033742934,0.086180665,9.428857803,1.249552011,-1.450867057,0.314299464,0.014892578,0.214355469,-1.025146484, 
115,1700327048,1.259865642,-0.709175348,1.389139414,-0.048068758,0.082590796,9.434861183,1.176551342,-1.443490148,0.374159932,0.015380859,0.213378906,-1.023193359, 
116,1700335381,1.269556522,-0.720790386,1.391731143,-0.029833203,0.063904904,9.429381371,1.185798168,-1.41129303,0.319601595,0.011962891,0.213378906,-1.023193359, 
117,1700343714,1.273288131,-0.725677311,1.407200575,-0.037305612,0.079884581,9.418323517,1.218507648,-1.514544129,0.33340767,0.014648438,0.209472656,-1.021240234, 
118,1700352047,1.283165574,-0.737417579,1.408710122,-0.058893561,0.085499473,9.420678139,1.207032323,-1.430785537,0.190019205,0.015380859,0.209472656,-1.023681641, 
119,1700360380,1.287158728,-0.741579175,1.423967361,-0.029936273,0.073906951,9.407427788,1.255238295,-1.433628559,0.24024868,0.011474609,0.212402344,-1.023193359, 
120,1700368713,1.297776937,-0.752891839,1.426733851,-0.036259554,0.071043402,9.444387436,1.299294829,-1.376944542,0.340707779,0.014404297,0.213623047,-1.021728516, 
121,1700377046,1.301362753,-0.756089389,1.443722248,-0.034088284,0.063912809,9.451906204,1.209619403,-1.323692441,0.239659578,0.012451172,0.213867188,-1.024902344, 
122,1700385379,1.310807824,-0.767733157,1.445454001,-0.038393583,0.074022643,9.424383163,1.158237219,-1.420539856,0.218450993,0.013427734,0.210449219,-1.025878906, 
123,1700393712,1.315019011,-0.771550715,1.467810869,-0.010647871,0.072125867,9.436587334,1.293480396,-1.400611997,0.27546829,0.014404297,0.213867188,-1.023193359, 
124,1700402045,1.324809551,-0.782417536,1.470621943,-0.030102424,0.065384433,9.457505226,1.202831626,-1.327457666,0.344703555,0.014404297,0.2109375,-1.024902344, 
125,1700410378,1.328103185,-0.786765456,1.500974894,-0.044821672,0.059642527,9.45629406,1.188359499,-1.465928197,0.272676349,0.013916016,0.209472656,-1.023925781, 
126,1700418711,1.338374615,-0.798673093,1.50327301,-0.034638435,0.067765228,9.421098709,1.262359142,-1.454504132,0.286328703,0.014892578,0.211914063,-1.025878906, 
127,1700427044,1.342079282,-0.802871287,1.527366877,-0.04306579,0.079127453,9.439480782,1.246350169,-1.452506304,0.314376265,0.014892578,0.212890625,-1.025390625, 
128,1700435377,1.352546334,-0.81486702,1.530380845,-0.036157992,0.078527629,9.421062469,1.288114309,-1.465083122,0.371355206,0.012939453,0.210449219,-1.022705078, 
129,1700443710,1.355796456,-0.81913203,1.553493619,-0.041769497,0.0490105,9.412848473,1.199668288,-1.467798114,0.259497792,0.015869141,0.213867188,-1.026367188, 
130,1700452043,1.365198612,-0.831294239,1.556182981,-0.059446983,0.072958604,9.423871994,1.161285281,-1.488135934,0.334022462,0.013916016,0.212402344,-1.024169922, 
131,1700460376,1.369327545,-0.835975289,1.580672026,-0.068479761,0.074677892,9.426017761,1.312691212,-1.525455832,0.265094519,0.016357422,0.2109375,-1.024902344, 
132,1700468709,1.379538536,-0.8468768,1.583079338,-0.076761588,0.069884278,9.446639061,1.259541631,-1.338010788,0.296420753,0.012939453,0.2109375,-1.022705078, 
133,1700477042,1.382816434,-0.851010561,1.607137322,-0.070203722,0.076219998,9.417078018,1.216022968,-1.472767234,0.259305716,0.015380859,0.21484375,-1.028320313, 
134,1700485375,1.392878175,-0.864140511,1.609402776,-0.066060193,0.06529627,9.431977272,1.243840098,-1.608676553,0.283536792,0.010009766,0.211425781,-1.024414063, 
135,1700493708,1.396257877,-0.868564069,1.634682894,-0.066947103,0.067546308,9.450380325,1.237820625,-1.523176074,0.30062148,0.012939453,0.2109375,-1.025390625, 
136,1700502041,1.406672239,-0.880912662,1.637973309,-0.066430025,0.04949313,9.465568542,1.288536906,-1.512238741,0.404666483,0.011962891,0.213867188,-1.023193359, 
137,1700510374,1.410213709,-0.884943724,1.664778829,-0.046182357,0.062249392,9.395136833,1.264946103,-1.489800572,0.357177675,0.017822266,0.213867188,-1.025146484, 
138,1700518707,1.420503139,-0.8969872,1.667631388,-0.034233939,0.064576402,9.420469284,1.276370049,-1.478428006,0.351952404,0.016357422,0.208984375,-1.023681641, 
139,1700527040,1.423972845,-0.899980724,1.698144913,-0.033273563,0.059775084,9.446320534,1.268327236,-1.376893163,0.339324564,0.014404297,0.209472656,-1.025878906, 
140,1700535373,1.433393717,-0.911740065,1.701541066,-0.027542496,0.081512831,9.445694923,1.174169421,-1.444489241,0.415373266,0.015380859,0.211425781,-1.025390625, 
141,1700543706,1.436732173,-0.915606737,1.725649357,-0.022117909,0.090250351,9.438052177,1.261385918,-1.491440058,0.229388282,0.011474609,0.211914063,-1.025390625, 
142,1700552039,1.446662307,-0.928058922,1.7281183,-0.029346241,0.059092779,9.441027641,1.234542251,-1.533011913,0.30574429,0.014404297,0.209960938,-1.025878906, 
143,1700560372,1.449778199,-0.930696845,1.749682188,-0.032275453,0.085069247,9.449714661,1.238819599,-1.3487432,0.227877051,0.011962891,0.212890625,-1.024414063, 
144,1700568705,1.459061742,-0.942624927,1.751113653,-0.017866686,0.058936123,9.444530487,1.157340765,-1.475379944,0.179978415,0.010498047,0.213867188,-1.023193359, 
145,1700577038,1.46245873,-0.94608289,1.774021506,-0.049994819,0.050775453,9.412878036,1.280212402,-1.454632521,0.167914122,0.015869141,0.213867188,-1.023193359, 
146,1700585371,1.472351551,-0.958631277,1.776243687,-0.054384757,0.042309865,9.444502831,1.234055281,-1.54978931,0.276518464,0.011962891,0.2109375,-1.024414063, 
147,1700593704,1.481139183,-0.961677074,1.800408006,-0.098667845,0.103316605,9.660647392,1.943083167,-1.410857916,0.289607376,0.013916016,0.211425781,-1.022705078, 
148,1700602037,1.492158771,-0.976786315,1.802072883,-0.007460969,0.064724691,9.182369232,1.36983645,-1.860951066,0.2162994,0.015380859,0.209472656,-1.024414063, 
149,1700610370,1.487568378,-0.978914797,1.823723674,-0.018618807,0.045484774,9.315281868,0.34585619,-1.316213131,0.358279139,0.013427734,0.210449219,-1.023925781, 
150,1700618703,1.493714809,-0.990023136,1.826416492,-0.05452612,0.10608381,9.496315002,0.789469123,-1.37873745,0.327285886,0.016357422,0.212402344,-1.024169922, 
151,1700627036,1.500854373,-0.9941172,1.850525975,-0.055212893,0.15520075,9.59777832,1.763962626,-1.560854435,0.194143087,0.013916016,0.210449219,-1.022705078, 
152,1700635369,1.515790224,-1.006723762,1.852665305,-0.056382436,0.046194397,9.410323143,1.845518589,-1.563467503,0.266657025,0.013427734,0.214355469,-1.023681641, 
153,1700643702,1.514953732,-1.009266615,1.873967171,-0.09061937,0.042638097,9.228362083,0.803736269,-1.384142041,0.296190202,0.012451172,0.2109375,-1.024414063, 
154,1700652035,1.520843744,-1.020974278,1.876700401,-0.070326753,0.098752148,9.495649338,0.763112128,-1.455605626,0.333919942,0.013427734,0.212402344,-1.025390625, 
155,1700660368,1.524652958,-1.024151087,1.899496078,-0.062853217,0.099600896,9.508377075,1.377699971,-1.477505922,0.320651799,0.015136719,0.207519531,-1.023925781, 
156,1700668701,1.535417914,-1.037374258,1.902138591,-0.071359552,0.04829856,9.315953255,1.351035714,-1.639695406,0.326671183,0.013916016,0.2109375,-1.024414063, 
157,1700677034,1.532307029,-1.03989172,1.927746654,-0.04118612,0.046722483,9.37001133,0.550206542,-1.416800141,0.243629783,0.016357422,0.214111328,-1.022216797, 
158,1700685367,1.543198347,-1.049398899,1.929926753,-0.083821237,0.115429938,9.565826416,1.366173625,-1.198003292,0.259356946,0.017333984,0.212890625,-1.025878906, 
159,1700693700,1.548327923,-1.055006266,1.956881404,-0.017750712,0.10823036,9.474009514,1.555001855,-1.798273087,0.297573358,0.014892578,0.211425781,-1.023193359, 
160,1700702033,1.5583148,-1.0659132,1.958831072,-0.03538302,0.004080428,9.331161499,1.258645058,-1.370156646,0.235791817,0.012939453,0.211425781,-1.023193359, 
161,1700710366,1.556589246,-1.065950036,1.982417345,-0.065255389,0.021758948,9.353708267,0.733412385,-1.145045877,0.256424099,0.013916016,0.209472656,-1.026367188, 
162,1700718699,1.565900683,-1.079207182,1.985025883,0.001936831,0.144227728,9.536733627,1.18372345,-1.652297497,0.323213249,0.013427734,0.213867188,-1.025390625, 
163,1700727032,1.572419524,-1.082208753,2.005506277,0.027348114,0.080699056,9.438814163,1.743240714,-1.51474905,0.221140489,0.015380859,0.211914063,-1.024902344, 
164,1700735365,1.582226157,-1.094001174,2.007775545,-0.016625935,0.061279189,9.37326622,1.244172931,-1.481040597,0.27539143,0.014404297,0.215087891,-1.023193359, 
165,1700743698,1.583121061,-1.096349478,2.030588865,-0.037900481,0.06342721,9.383255005,1.073710203,-1.431579471,0.361327201,0.014892578,0.211425781,-1.023193359, 
166,1700752031,1.593172312,-1.10725677,2.03275013,-0.042529877,0.081939168,9.456295967,1.275396824,-1.378097177,0.260125369,0.013671875,0.208984375,-1.022216797, 
167,1700760364,1.597083092,-1.110708237,2.055858135,-0.041549549,0.05896097,9.491900444,1.447293758,-1.576812148,0.28299886,0.013916016,0.213867188,-1.023193359, 
168,1700768697,1.607029557,-1.121682882,2.058728218,-0.068274111,0.027764441,9.354644775,1.267072201,-1.386626601,0.344063193,0.012939453,0.210449219,-1.023193359, 
169,1700777030,1.607147217,-1.124871135,2.082978725,-0.06807553,0.054113045,9.447460175,1.006037593,-1.556013584,0.359611094,0.012939453,0.210449219,-1.022216797, 
170,1700785363,1.617521405,-1.135829568,2.086036205,-0.088137865,0.070511192,9.44598484,1.319965601,-1.384884834,0.36596337,0.016357422,0.211914063,-1.022705078, 
171,1700793696,1.620824695,-1.138739944,2.11036253,-0.074655183,0.051116485,9.418718338,1.404018641,-1.541515827,0.330807835,0.015380859,0.211425781,-1.025390625, 
172,1700802029,1.631460667,-1.150955319,2.113225222,-0.068750851,0.067645364,9.418128014,1.355108261,-1.541106105,0.346445352,0.014404297,0.213867188,-1.025390625, 
173,1700810362,1.632260323,-1.153133392,2.135337353,-0.046752091,0.070778705,9.404512405,1.1183815,-1.472357392,0.385865599,0.015869141,0.208496094,-1.024902344, 
174,1700818695,1.642108202,-1.165382862,2.138311625,-0.04143887,0.095434263,9.442154884,1.263511658,-1.54709971,0.359713465,0.012451172,0.212402344,-1.021240234, 
175,1700827028,1.64484942,-1.167007565,2.156874418,-0.054655511,0.073250234,9.430648804,1.36000061,-1.42648232,0.234613582,0.015869141,0.209472656,-1.025878906, 
176,1700835361,1.653795719,-1.179035068,2.159115314,-0.038213011,0.065758511,9.375401497,1.155368567,-1.525199533,0.271267563,0.014892578,0.211425781,-1.023193359, 
177,1700843694,1.654590368,-1.180362463,2.180274487,-0.047085319,0.090895534,9.417236328,1.134492993,-1.406759501,0.18612586,0.011474609,0.210449219,-1.025390625, 
178,1700852027,1.664814711,-1.192319989,2.181374073,-0.044725128,0.091074005,9.433751106,1.310129642,-1.52471292,0.13220787,0.013427734,0.208984375,-1.025878906, 
179,1700860360,1.667353511,-1.193480611,2.204896212,-0.035318714,0.082046464,9.437469482,1.356901169,-1.397205234,0.321087241,0.014404297,0.2109375,-1.026855469, 
180,1700868693,1.676643252,-1.203914285,2.207762003,-0.046503074,0.060027253,9.431424141,1.205034494,-1.338958502,0.339478225,0.013427734,0.211425781,-1.024902344, 
181,1700877026,1.676533461,-1.205444336,2.232555866,-0.044986419,0.048402064,9.422706604,1.050862432,-1.452762485,0.362402976,0.016357422,0.211914063,-1.024169922, 
182,1700885359,1.686002493,-1.217383981,2.235683918,-0.035301708,0.07177458,9.478514671,1.229573011,-1.522125959,0.374800324,0.015380859,0.213378906,-1.024658203, 
183,1700893692,1.687729359,-1.219825625,2.259195089,-0.046790786,0.05867058,9.417197227,1.285924315,-1.577196479,0.331947684,0.013427734,0.211914063,-1.027832031, 
184,1700902025,1.696491003,-1.23212564,2.262302637,-0.046211205,0.058698207,9.420995712,1.147389531,-1.569384098,0.373942196,0.014404297,0.2109375,-1.024902344, 
185,1700910358,1.697265267,-1.233852029,2.286461115,-0.03411191,0.062769204,9.440678596,1.185388327,-1.505604625,0.373775721,0.012939453,0.212402344,-1.023681641, 
186,1700918691,1.706864834,-1.245532036,2.28838253,-0.011892693,0.071590424,9.439614296,1.248066664,-1.501737118,0.229746893,0.016357422,0.212890625,-1.024658203, 
187,1700927024,1.707954168,-1.246742249,2.31138587,-0.009617761,0.075603306,9.399169922,1.238973141,-1.458858609,0.337429106,0.01171875,0.208007813,-1.024414063, 
188,1700935357,1.717141151,-1.258225918,2.314140081,-0.022659568,0.067945965,9.390919685,1.202626705,-1.478581667,0.327029735,0.015869141,0.2109375,-1.025878906, 
189,1700943690,1.717316031,-1.259841204,2.335570335,-0.044318855,0.0658627,9.437875748,1.13727212,-1.521716118,0.186446041,0.015380859,0.209960938,-1.023193359, 
190,1700952023,1.740705252,-1.264229298,2.338174105,-0.095605351,-0.061558783,10.15785408,2.910776138,-0.631992877,0.283959419,0.013916016,0.211914063,-1.022216797, 
191,1700960356,1.726906538,-1.262893438,2.361917019,-0.172741085,-0.075619698,8.540531158,-0.518739462,-1.17241478,0.450887352,0.013427734,0.208984375,-1.025390625, 
192,1700968689,1.722174764,-1.281352401,2.365001202,-0.056004677,0.295996875,9.527906418,-0.459186405,-2.323287964,0.390911669,0.013916016,0.212402344,-1.020751953, 
193,1700977022,1.743889809,-1.284234405,2.386741877,0.067911953,0.085752904,9.97394371,3.773886204,-1.713182449,0.288864523,0.012451172,0.210449219,-1.025878906, 
194,1700985355,1.758586168,-1.291902065,2.38953948,-0.130264997,-0.083016984,9.078837395,1.875051498,-1.032253623,0.316655964,0.014404297,0.210449219,-1.024414063, 
195,1700993688,1.747063756,-1.292641759,2.411718369,-0.165330797,0.167047679,9.530034065,-0.218335718,-1.463648558,0.365066856,0.014892578,0.2109375,-1.026855469, 
196,1701002021,1.75539732,-1.312375188,2.413362503,0.010768391,0.19199419,9.232097626,1.110799909,-2.486988544,0.222267538,0.013427734,0.213378906,-1.025390625, 
197,1701010354,1.772097349,-1.316082597,2.43274951,0.03910242,0.095939122,9.802991867,3.185988188,-1.855418324,0.276697755,0.010986328,0.211425781,-1.023193359, 
198,1701018687,1.774932384,-1.325343966,2.435875416,-0.031186394,-0.056872256,8.885468483,0.458277047,-1.228765965,0.359995246,0.009521484,0.211425781,-1.022705078, 
199,1701027020,1.759477854,-1.323773503,2.460017204,-0.024376823,0.13768521,9.43398571,-0.670657456,-1.224437237,0.328438491,0.013427734,0.211914063,-1.022216797, 
200,1701035353,1.775747895,-1.334060431,2.462372303,0.015914943,0.193314895,9.701795578,2.072844744,-1.35880971,0.271523714,0.012451172,0.214355469,-1.023681641, 
201,1701043686,1.783266783,-1.335079432,2.48559165,-0.036295235,0.055899452,9.413903236,2.104119539,-1.548406005,0.315324068,0.016845703,0.209960938,-1.023193359, 
202,1701052019,1.790590405,-1.3460325,2.488202095,-0.040859245,-0.021015348,9.38414669,1.003937125,-1.442055702,0.304591686,0.013916016,0.211425781,-1.023681641, 
203,1701060352,1.783608079,-1.346039534,2.510466576,-0.02344702,0.046414796,9.175495148,0.370394617,-1.438341737,0.356153131,0.015380859,0.213378906,-1.024169922, 
204,1701068685,1.791294575,-1.356564879,2.513484955,-0.009529799,0.109823011,9.603809357,1.051092982,-1.392261863,0.350133836,0.014404297,0.211914063,-1.021728516, 
205,1701077018,1.798820257,-1.356535912,2.53429389,-0.056840021,0.056786764,9.55843544,2.132525921,-1.45153296,0.245269105,0.016845703,0.212402344,-1.025878906, 
206,1701085351,1.807356,-1.368048549,2.536980152,-0.059574284,-0.032212462,9.208090782,1.154702663,-1.516362786,0.314171404,0.014404297,0.2109375,-1.02734375, 
207,1701093684,1.801036119,-1.367293477,2.557235956,-0.044669449,0.050026845,9.389657021,0.485914826,-1.377456665,0.301927805,0.015380859,0.212402344,-1.024169922, 
208,1701102017,1.812785149,-1.378512621,2.560553074,-0.064053543,0.101199172,9.572265625,1.546805263,-1.484037519,0.386685282,0.016357422,0.209472656,-1.023193359, 
209,1701110350,1.815559983,-1.379190922,2.580976009,-0.041411176,0.034031648,9.394165993,1.598545909,-1.567975402,0.296881765,0.014404297,0.211914063,-1.025878906, 
210,1701118683,1.82452774,-1.390461922,2.584223747,-0.070041344,0.047741685,9.352963448,1.216945052,-1.494155169,0.377950817,0.013916016,0.209960938,-1.022705078, 
211,1701127016,1.82209003,-1.390610099,2.605074883,-0.061087321,0.065058127,9.335552216,0.989772439,-1.521613598,0.34595865,0.016845703,0.211914063,-1.025878906, 
212,1701135349,1.830725312,-1.401677251,2.607891798,-0.041398782,0.122089267,9.591259003,1.179753304,-1.475303173,0.32595396,0.012451172,0.213867188,-1.023681641, 
213,1701143682,1.834498525,-1.40156424,2.626879215,-0.045400549,0.092130087,9.436789513,1.749490619,-1.51451838,0.218451023,0.014648438,0.208007813,-1.024902344, 
214,1701152015,1.842002749,-1.411998272,2.628917933,-0.01955303,0.087352477,9.303902626,1.045022368,-1.407681465,0.229413897,0.016845703,0.209472656,-1.023681641, 
215,1701160348,1.841580868,-1.411401033,2.64781785,-0.030981226,0.134189248,9.524713516,1.253112435,-1.475533605,0.163585305,0.016357422,0.211425781,-1.025390625, 
216,1701168681,1.850626588,-1.422616363,2.650684834,-0.056525178,0.124450423,9.368664742,1.237231493,-1.501685619,0.331742734,0.013916016,0.211425781,-1.026367188, 
217,1701177014,1.850370884,-1.423579812,2.670381069,-0.054515596,0.087024242,9.494931221,1.284233689,-1.675299048,0.273367912,0.014404297,0.212402344,-1.023681641, 
218,1701185347,1.859686732,-1.435323715,2.672038317,-0.076850392,0.065616108,9.364928246,1.269607902,-1.573610425,0.186407596,0.011962891,0.209960938,-1.024414063, 
219,1701193680,1.8551507,-1.43481636,2.693601131,-0.049052346,0.058991373,9.395249367,0.780632138,-1.516439438,0.305129558,0.014160156,0.206542969,-1.0234375, 
220,1701202013,1.864792824,-1.446359634,2.695463419,-0.053729925,0.064303704,9.494462013,1.312870502,-1.553708434,0.209537268,0.014404297,0.211914063,-1.024169922, 
221,1701210346,1.86467576,-1.445325971,2.715205908,-0.049578659,0.022041328,9.354849815,1.328981996,-1.474534631,0.317450047,0.012451172,0.209960938,-1.023925781, 
222,1701218679,1.872931838,-1.455578685,2.718435287,-0.043892372,0.031961162,9.46445179,1.155061364,-1.397256613,0.367653966,0.014404297,0.2109375,-1.023193359, 
223,1701227012,1.87192142,-1.454442859,2.74088645,-0.02587818,0.057262078,9.376465797,1.240868807,-1.480323434,0.337736487,0.010986328,0.211425781,-1.023193359, 
224,1701235345,1.881452084,-1.465372801,2.742918015,-0.011124576,0.049183201,9.453307152,1.308656931,-1.489442229,0.22642985,0.012695313,0.209472656,-1.021728516, 
225,1701243678,1.881372809,-1.464154243,2.766998768,-0.024961323,0.06649825,9.425918579,1.370297432,-1.488955379,0.265888572,0.013916016,0.2109375,-1.024414063, 
226,1701252011,1.889229298,-1.475132108,2.769841671,-0.02592719,0.045650288,9.36461544,1.114155054,-1.494744182,0.323110729,0.014404297,0.209960938,-1.022216797, 
227,1701260344,1.887502789,-1.473036766,2.792924643,-0.030984873,0.073714398,9.514328003,1.191331029,-1.397051573,0.306102931,0.013427734,0.2109375,-1.025390625, 
228,1701268677,1.897230148,-1.484397292,2.795780659,-0.040183324,0.047154851,9.409600258,1.341968179,-1.546689987,0.325159878,0.013183594,0.208984375,-1.024902344, 
229,1701277010,1.895010233,-1.482112169,2.817177296,-0.058821563,0.05714171,9.465366364,1.147632957,-1.39123702,0.261124313,0.014404297,0.211425781,-1.023193359, 
230,1701285343,1.90380168,-1.492501497,2.819614649,-0.054606695,0.050338145,9.441746712,1.232902765,-1.437419653,0.269833148,0.013916016,0.209960938,-1.023925781, 
231,1701293676,1.901844025,-1.490483522,2.84078908,-0.083259642,0.049380604,9.415874481,1.197683334,-1.441415548,0.305232048,0.018310547,0.211425781,-1.024658203, 
232,1701302009,1.911409736,-1.501542449,2.843804359,-0.074110001,0.081190325,9.482138634,1.331056476,-1.518437266,0.341219991,0.015380859,0.209472656,-1.026367188, 
233,1701310342,1.909571528,-1.499549747,2.864954948,-0.061786722,0.069801249,9.430802345,1.229841948,-1.468284726,0.283703268,0.013671875,0.208007813,-1.021240234, 
234,1701318675,1.917828083,-1.510153174,2.867999315,-0.055526249,0.083049655,9.402568817,1.180444837,-1.468438387,0.342347056,0.012451172,0.212402344,-1.023681641, 
235,1701327008,1.917072535,-1.508011341,2.890303612,-0.040611845,0.113563962,9.437380791,1.375522733,-1.469539881,0.337403506,0.013916016,0.211425781,-1.022705078, 
236,1701335341,1.926036716,-1.518444538,2.892702818,-0.030726392,0.094238997,9.414013863,1.267072201,-1.457475543,0.26284048,0.014404297,0.2109375,-1.023681641, 
237,1701343674,1.924181461,-1.515619159,2.915929556,-0.046658497,0.081976555,9.424711227,1.252881765,-1.407937646,0.275237769,0.013916016,0.211425781,-1.021728516, 
238,1701352007,1.933015704,-1.525483847,2.917810678,-0.033645667,0.089401595,9.389022827,1.254264951,-1.394848704,0.197857156,0.012939453,0.212890625,-1.024902344, 
239,1701360340,0.476214975,0.306635141,2.490327835,-0.023605393,0.111427836,9.435416222,1.238666058,-1.34861517,0.284151524,0.015869141,0.213378906,-1.022705078, 
240,1701368673,0.485846877,0.296782881,2.49310112,-0.029282959,0.091296203,9.438568115,1.346373796,-1.405171275,0.274392515,0.013427734,0.2109375,-1.022216797, 
241,1701377006,0.484179676,0.296244085,2.465404987,-0.04780997,0.033050355,9.405550003,1.03283,-1.503401756,0.28310129,0.012451172,0.212890625,-1.022705078, 
242,1701385339,0.483487487,0.295496851,2.464721918,-0.063600272,0.033037338,9.452431679,1.148836732,-1.561290145,0.215710282,0.015869141,0.2109375,-1.025878906, 
243,1701393672,0.484153062,0.294434518,2.449014902,-0.054868147,0.036181405,9.406134605,1.31466341,-1.56720674,0.283664793,0.015380859,0.2109375,-1.024902344, 
244,1701402005,0.483852208,0.294512123,2.449188709,-0.058992893,0.033463947,9.425034523,1.194763303,-1.460830927,0.318910033,0.016357422,0.212402344,-1.022705078, 
245,1701410338,0.484329104,0.293576986,2.437438965,-0.059738871,0.032572467,9.410606384,1.294914722,-1.551402807,0.401925743,0.014892578,0.212402344,-1.023193359, 
246,1701418671,0.484082043,0.292693079,2.438255787,-0.038564544,0.045547903,9.420116425,1.201141238,-1.577247739,0.396777332,0.013427734,0.211425781,-1.024902344, 
247,1701427004,0.483933628,0.292006254,2.423810244,-0.027266568,0.072263636,9.447877884,1.22145319,-1.524072528,0.286815375,0.015869141,0.209960938,-1.024414063, 
248,1701435337,0.484041303,0.292975396,2.423893452,-0.017247086,0.100218154,9.418737411,1.244172931,-1.356478572,0.305436939,0.013916016,0.211425781,-1.023681641, 
249,1701443670,0.484019399,0.292186171,2.409996748,-0.013655695,0.090486296,9.454010963,1.239255071,-1.536085606,0.340759009,0.014892578,0.210449219,-1.023193359, 
250,1701452003,0.483934015,0.29183054,2.409021854,-0.013907054,0.102650501,9.440805435,1.221939921,-1.51497972,0.181643367,0.014404297,0.209960938,-1.025878906, 
251,1701460336,0.483321279,0.292966157,2.396472216,-0.029647231,0.089025207,9.418598175,1.165486097,-1.303815722,0.294832647,0.013427734,0.214355469,-1.025878906, 
252,1701468669,0.482900292,0.292917848,2.395833731,-0.048774779,0.119365573,9.365202904,1.180611372,-1.477774978,0.22130698,0.014892578,0.210449219,-1.024902344, 
253,1701477002,0.483170778,0.292028666,2.381064892,-0.038392965,0.131262526,9.551502228,1.272502303,-1.548482895,0.236816406,0.014404297,0.210449219,-1.021240234, 
254,1701485335,0.486897737,0.293330103,2.380310059,-0.090218522,0.032909598,9.432366371,1.678078294,-1.315291047,0.20390211,0.018310547,0.208007813,-1.028320313, 
255,1701493668,0.484480321,0.292591304,2.365537405,-0.076535679,0.038168594,9.268221855,0.947611392,-1.530476093,0.22897844,0.013916016,0.212890625,-1.022216797, 
256,1701502001,0.476759493,0.290833563,2.365724802,-0.059679929,0.084734835,9.353439331,0.304617286,-1.682265997,0.32083109,0.014404297,0.2109375,-1.025878906, 
257,1701510334,0.473360717,0.289165407,2.350341558,0.021925204,0.124874681,9.424275398,0.830375075,-1.644766927,0.224982649,0.015869141,0.209960938,-1.028320313, 
258,1701518667,0.484741777,0.294294596,2.349970341,-0.151147291,0.101279959,9.633478165,2.597193718,-0.856949806,0.246011943,0.014892578,0.212402344,-1.024169922, 
259,1701527000,0.485951424,0.291696846,2.337114811,-0.036456034,0.020804645,9.434580803,1.382374644,-1.75494647,0.276377559,0.015380859,0.2109375,-1.025878906, 
260,1701535333,0.485374063,0.294642419,2.337202311,-0.032523979,-0.004170108,9.393406868,1.162027955,-1.118163824,0.305334449,0.016845703,0.211425781,-1.026367188, 
261,1701543666,0.481987238,0.295600235,2.323727608,-0.033504002,0.038038954,9.437547684,0.831066608,-1.331222892,0.304899037,0.015380859,0.210449219,-1.024414063, 
262,1701551999,0.480695814,0.294732153,2.323452473,-0.016071102,0.10666772,9.409754753,1.077911019,-1.57473743,0.264326066,0.014160156,0.208984375,-1.022705078, 
263,1701560332,0.481526732,0.293551594,2.310344696,-0.040993236,0.102346145,9.358293533,1.341046095,-1.588441014,0.232590064,0.016357422,0.213867188,-1.024169922, 
264,1701568665,0.482885003,0.292420566,2.310373068,0.012768189,0.102216534,9.557393074,1.393773079,-1.606857896,0.300429404,0.012451172,0.210449219,-1.023925781, 
265,1701576998,0.48441726,0.293293655,2.298742771,-0.040845398,0.054181062,9.265511513,1.423626542,-1.34087956,0.316169322,0.011230469,0.208984375,-1.025878906, 
266,1701585331,0.486280918,0.293870777,2.299109459,-0.066562295,0.036982246,9.622423172,1.455106258,-1.402840495,0.339683175,0.012939453,0.213378906,-1.024902344, 
267,1701593664,0.487710238,0.292979866,2.285793066,-0.068886064,0.031773306,9.32553196,1.40984571,-1.550608873,0.392141104,0.016845703,0.211425781,-1.023681641, 
268,1701601997,0.483510911,0.293017268,2.285823345,-0.071971819,0.028189212,9.386567116,0.726816714,-1.46687603,0.299955487,0.011962891,0.211914063,-1.023193359, 
269,1701610330,0.484316438,0.292974681,2.275954962,-0.066007055,0.088253386,9.480969429,1.337536812,-1.452147722,0.309765726,0.011962891,0.212402344,-1.021240234, 
270,1701618663,0.484324992,0.292557716,2.276117563,-0.048364092,0.123783983,9.425150871,1.232326508,-1.520281792,0.316182137,0.013916016,0.212402344,-1.025390625, 
271,1701626996,0.485660166,0.291952163,2.262328148,-0.022633223,0.102634788,9.524022102,1.402507424,-1.520307541,0.357113659,0.014648438,0.208984375,-1.022705078, 
272,1701635329,0.486645073,0.292850196,2.262834311,-0.042809371,0.102669217,9.330760002,1.349242687,-1.364137292,0.356460541,0.015380859,0.211425781,-1.024169922, 
273,1701643662,0.485650092,0.292637467,2.250500917,-0.031894241,0.102619216,9.480913162,1.121045351,-1.473202705,0.205105975,0.015380859,0.212890625,-1.024658203, 
274,1701651995,0.486221015,0.293203443,2.25047493,-0.020108173,0.090852045,9.435054779,1.301215887,-1.404812694,0.29321897,0.010498047,0.211914063,-1.022705078, 
275,1701660328,0.485741973,0.292093217,2.236988068,-0.050432377,0.10422869,9.44373703,1.180521607,-1.581192255,0.296267033,0.015869141,0.2109375,-1.025878906, 
276,1701668661,0.485539526,0.291487277,2.237344503,-0.034966677,0.066817753,9.398962975,1.206673861,-1.544179916,0.340502828,0.012939453,0.211425781,-1.024902344, 
277,1701676994,0.485587597,0.291513771,2.226175785,-0.047455713,0.066708624,9.431143761,1.245658755,-1.444642901,0.1973961,0.018310547,0.210449219,-1.025878906, 
278,1701685327,0.485643625,0.290821135,2.226329327,-0.038581613,0.045573372,9.490650177,1.237052321,-1.55486083,0.315298438,0.013916016,0.211914063,-1.022216797, 
279,1701693660,0.485549778,0.291256905,2.218990326,-0.046108816,0.035229392,9.392665863,1.228574038,-1.396718502,0.273828983,0.015869141,0.2109375,-1.021728516, 
280,1701701993,0.485509157,0.291662395,2.218802452,-0.066900581,0.043509055,9.410242081,1.22680676,-1.422947764,0.274546176,0.015380859,0.2109375,-1.025878906, 
281,1701710326,0.485253662,0.291270673,2.206804037,-0.058668461,0.052677412,9.451733589,1.208338737,-1.496639848,0.275314629,0.015380859,0.212890625,-1.023193359, 
282,1701718659,0.48586449,0.291782767,2.206778049,-0.046981428,0.051442854,9.431080818,1.306210637,-1.409858704,0.29309085,0.015380859,0.209960938,-1.025390625, 
283,1701726992,0.485674858,0.291396797,2.194467068,-0.047285851,0.045773525,9.394866943,1.218430758,-1.495154142,0.33571294,0.014892578,0.2109375,-1.024902344, 
284,1701735325,0.485772133,0.291657329,2.19454217,-0.044162896,0.062357292,9.469355583,1.242443919,-1.440326691,0.305705875,0.011962891,0.212890625,-1.024902344, 
285,1701743658,0.485489756,0.29111734,2.180014133,-0.036315601,0.082603864,9.440489769,1.208492517,-1.516157985,0.284074694,0.010986328,0.213378906,-1.025878906, 
286,1701751991,0.485111147,0.290707409,2.180252552,-0.020356596,0.087040782,9.426602364,1.186797023,-1.519846082,0.32585147,0.015380859,0.210449219,-1.023193359, 
287,1701760324,0.485329241,0.290539831,2.167278051,-0.032223113,0.091630027,9.408943176,1.268019915,-1.47210145,0.289274395,0.011962891,0.210449219,-1.022705078, 
288,1701768657,0.485409379,0.290985793,2.167981863,-0.037373304,0.096970998,9.440429688,1.241662741,-1.417081833,0.380563468,0.016845703,0.211914063,-1.022705078, 
289,1701776990,0.485427141,0.290281564,2.155298471,-0.0396122,0.081885129,9.436040878,1.243737698,-1.533959627,0.365527928,0.016845703,0.2109375,-1.023681641, 
290,1701785323,0.485420585,0.290015697,2.155320883,-0.070729718,0.081989542,9.432705879,1.230392575,-1.502787113,0.299468815,0.012939453,0.214111328,-1.021728516, 
291,1701793656,0.485143602,0.28941384,2.144846439,-0.067172691,0.071919173,9.488355637,1.207698345,-1.523688316,0.312224716,0.016357422,0.213378906,-1.023193359, 
292,1701801989,0.484788477,0.288887292,2.144475698,-0.063793875,0.053687174,9.425011635,1.189409852,-1.534958601,0.254029185,0.014404297,0.214599609,-1.023193359, 
293,1701810322,0.484819531,0.288420886,2.134630919,-0.064682133,0.068674572,9.43368721,1.245530725,-1.507577062,0.310585409,0.016357422,0.211425781,-1.025878906, 
294,1701818655,0.486422867,0.288163245,2.134613991,-0.085900992,0.046200965,9.42175293,1.423959374,-1.502530932,0.296625644,0.015380859,0.213378906,-1.024169922, 
295,1701826988,0.485397279,0.287616789,2.123194218,-0.069247298,0.06029509,9.412846565,1.119278073,-1.519487739,0.264095604,0.013427734,0.211914063,-1.023681641, 
296,1701835321,0.484779298,0.287171215,2.123054504,-0.076641053,0.081092149,9.462039948,1.157494426,-1.524251819,0.279387265,0.012451172,0.211425781,-1.025390625, 
297,1701843654,0.485438079,0.286581159,2.113101959,-0.051810287,0.072888136,9.420664787,1.321066976,-1.525967956,0.315247208,0.013671875,0.208496094,-1.024414063, 
298,1701851987,0.485472471,0.285781562,2.113030434,-0.048917569,0.082214013,9.458803177,1.236309528,-1.567155838,0.289556146,0.014892578,0.209472656,-1.026367188, 
299,1701860320,0.486007661,0.286052734,2.100696325,-0.033705413,0.062666446,9.438874245,1.30700469,-1.423639059,0.214480788,0.014892578,0.209472656,-1.022705078, 
300,1701868653,0.485245615,0.28620705,2.100749016,-0.052713115,0.069282159,9.423448563,1.139065146,-1.45300591,0.302760273,0.016357422,0.210449219,-1.023193359, 
301,1701876986,0.485424429,0.285493791,2.089695215,-0.027697319,0.05335997,9.444919586,1.265279174,-1.542002559,0.317450047,0.011962891,0.2109375,-1.022705078, 
302,1701885319,0.484921515,0.285197258,2.088905573,-0.041195035,0.065020628,9.454605103,1.171479702,-1.508473396,0.201494366,0.013427734,0.2109375,-1.024414063, 
303,1701893652,0.484842211,0.285271555,2.076680899,-0.042915057,0.057916299,9.427753448,1.233158827,-1.446358919,0.268296331,0.014404297,0.213134766,-1.020263672, 
304,1701901985,0.48460716,0.284555942,2.076293468,-0.043803345,0.05293414,9.441181183,1.203984261,-1.558216453,0.251032293,0.015380859,0.2109375,-1.022705078, 
305,1701910318,0.484249473,0.284358919,2.064159155,-0.036851995,0.068509914,9.427236557,1.200372577,-1.480425954,0.275288999,0.014404297,0.211425781,-1.025878906, 
306,1701918651,0.483837426,0.284326732,2.063421726,-0.044649959,0.071235023,9.444368362,1.183441639,-1.475584745,0.208384603,0.012939453,0.213867188,-1.023681641, 
307,1701926984,0.483892322,0.283972263,2.051784992,-0.057955109,0.092458241,9.431434631,1.250755906,-1.499380589,0.313479811,0.015380859,0.214355469,-1.027832031, 
308,1701935317,0.483953744,0.283685952,2.051495552,-0.04316375,0.086671993,9.430997849,1.239178181,-1.505707026,0.261559725,0.015380859,0.211914063,-1.023681641, 
309,1701943650,0.483438194,0.283605278,2.042503357,-0.035225894,0.088315882,9.463684082,1.180854559,-1.466030598,0.375594348,0.015380859,0.209960938,-1.023681641, 
310,1701951983,0.483924448,0.283349752,2.043140411,-0.035596393,0.08079803,9.431254387,1.288933992,-1.501250267,0.374633819,0.015869141,0.211914063,-1.024169922, 
311,1701960316,0.484301507,0.283454776,2.033190012,-0.047115196,0.085506096,9.446713448,1.289919972,-1.444412351,0.295857191,0.013916016,0.210449219,-1.024414063, 
312,1701968649,0.484660298,0.283865541,2.03277564,-0.044316713,0.069836386,9.46233654,1.273680568,-1.422716975,0.24657543,0.012451172,0.213378906,-1.023193359, 
313,1701976982,0.484226972,0.28347075,2.021857738,-0.049973484,0.075202703,9.429563522,1.190895319,-1.504887342,0.338658571,0.011962891,0.213378906,-1.022216797, 
314,1701985315,0.484044403,0.28375262,2.022251368,-0.061771527,0.059937596,9.418601036,1.209568143,-1.435959578,0.342628807,0.012939453,0.2109375,-1.024902344, 
315,1701993648,0.483686,0.283356339,2.009642839,-0.078538798,0.037609387,9.4451437,1.200193405,-1.506552458,0.22516191,0.014404297,0.208984375,-1.025390625, 
316,1702001981,0.484091043,0.28423512,2.009999514,-0.05385638,0.052364919,9.452047348,1.280442715,-1.36605823,0.33824876,0.014404297,0.212890625,-1.026367188, 
317,1702010314,0.483856857,0.283590823,1.999992132,-0.072277106,0.045277841,9.424542427,1.216432929,-1.536188245,0.227134228,0.016357422,0.209960938,-1.022705078, 
318,1702018647,0.48385489,0.283618271,1.999954581,-0.07262782,0.0604629,9.466226578,1.230623245,-1.468797207,0.291963875,0.013916016,0.212402344,-1.025390625, 
319,1702026980,0.484126955,0.283454508,1.991458416,-0.051595006,0.054012325,9.424922943,1.277625203,-1.478095055,0.323469341,0.014892578,0.212890625,-1.024658203, 
320,1702035313,0.484078348,0.283328295,1.99179697,-0.042337656,0.066385537,9.420134544,1.225551486,-1.487136841,0.338684231,0.011474609,0.209960938,-1.024414063, 
321,1702043646,0.484437793,0.28184393,1.98133719,-0.033180382,0.072896756,9.44325161,1.288921118,-1.637671828,0.255489171,0.012939453,0.2109375,-1.022216797, 
322,1702051979,0.484437615,0.282001793,1.981766582,-0.033896115,0.075935431,9.399259567,1.231109738,-1.452403903,0.348929912,0.016601563,0.208496094,-1.022705078, 
323,1702060312,0.484544516,0.281395406,1.971227646,-0.040057588,0.081884168,9.440024376,1.257082582,-1.532781363,0.356921554,0.017822266,0.209960938,-1.023681641, 
324,1702068645,0.485249728,0.280997753,1.971485734,-0.02851906,0.087667763,9.417047501,1.316917419,-1.519257069,0.328207999,0.010986328,0.211914063,-1.023193359, 
325,1702076978,0.48549214,0.281282187,1.964377403,-0.037901998,0.087198824,9.436375618,1.27462852,-1.42678988,0.226878107,0.011962891,0.2109375,-1.024902344, 
326,1702085311,0.4851183,0.281692237,1.964610934,-0.032080434,0.078100003,9.44041729,1.186233521,-1.421641231,0.325031787,0.018310547,0.212890625,-1.022705078, 
327,1702093644,0.484268785,0.281657487,1.952998757,-0.061927758,0.077721231,9.431768417,1.142689466,-1.464212179,0.262174487,0.013427734,0.214355469,-1.025390625, 
328,1702101977,0.483987212,0.281375647,1.95300746,-0.056077614,0.068553276,9.437633514,1.197811246,-1.506219387,0.297573358,0.013916016,0.210449219,-1.019775391, 
329,1702110310,0.483399063,0.281404316,1.941895962,-0.039419182,0.077205561,9.43433094,1.17365706,-1.455400825,0.346163571,0.014892578,0.213867188,-1.023193359, 
330,1702118643,0.483587921,0.281301677,1.941764116,-0.039201949,0.066271938,9.438875198,1.254854202,-1.484191179,0.281769365,0.014404297,0.211425781,-1.024902344, 
331,1702126976,0.483365595,0.281399727,1.931352973,-0.042603374,0.078964591,9.436777115,1.217841625,-1.4490484,0.295139998,0.017333984,0.211425781,-1.024169922, 
332,1702135309,0.483556002,0.2814596,1.931623459,-0.061670698,0.058476958,9.43042469,1.253471017,-1.464647651,0.330462068,0.015380859,0.210449219,-1.025878906, 
333,1702143642,0.483558625,0.281201869,1.924114943,-0.040320285,0.060758263,9.443696976,1.244582772,-1.491030216,0.270857722,0.015869141,0.212402344,-1.021728516, 
334,1702151975,0.483802378,0.281608045,1.924038529,-0.037285618,0.070872881,9.430253983,1.26047647,-1.423357368,0.287955225,0.016357422,0.211425781,-1.025390625, 
335,1702160308,0.482618392,0.28222239,1.913769484,-0.037522785,0.079147838,9.446576118,1.103909492,-1.386857152,0.26296854,0.015869141,0.209960938,-1.024414063, 
336,1702168641,0.482499719,0.28275454,1.912628412,-0.05463158,0.082269706,9.438653946,1.218174577,-1.408885479,0.159358978,0.016357422,0.213378906,-1.023681641, 
337,1702176974,0.481213242,0.282888979,1.903015614,-0.057638988,0.048653256,9.402537346,1.089860201,-1.444950342,0.293154925,0.014404297,0.211425781,-1.023681641, 
338,1702185307,0.481059581,0.282167017,1.902948618,-0.058423202,0.06907773,9.412612915,1.213615179,-1.559240699,0.288838923,0.013427734,0.211425781,-1.023681641, 
339,1702193640,0.480291873,0.281858861,1.892756462,-0.048425332,0.056593478,9.42209816,1.152294755,-1.497561693,0.30559063,0.015869141,0.210449219,-1.023193359, 
340,1702201973,0.480131239,0.280455083,1.892825127,-0.062217914,0.058897927,9.432414055,1.211976051,-1.640796781,0.306179762,0.015380859,0.212402344,-1.024658203, 
341,1702210306,0.4807401,0.279718548,1.884587049,-0.065504715,0.077326372,9.404214859,1.318274975,-1.550839424,0.32083109,0.013671875,0.207519531,-1.021240234, 
342,1702218639,0.480797201,0.279939562,1.884579659,-0.049464174,0.043686844,9.425603867,1.237743974,-1.444335461,0.295882851,0.015380859,0.210449219,-1.023193359, 
343,1702226972,0.481116563,0.28016904,1.87575376,-0.041465458,0.092803456,9.422225952,1.283913612,-1.434960723,0.34479323,0.014404297,0.211425781,-1.025390625, 
344,1702235305,0.480957538,0.279874355,1.876249552,-0.036015395,0.087003194,9.420589447,1.211591721,-1.506321907,0.356255561,0.016845703,0.209472656,-1.025390625, 
345,1702243638,0.480564266,0.280001462,1.86729455,-0.046661019,0.102898076,9.468491554,1.198707819,-1.447614193,0.394292772,0.013916016,0.214111328,-1.021240234, 
346,1702251971,0.479454964,0.279401749,1.867159247,-0.052803319,0.078747816,9.437589645,1.098658442,-1.54225862,0.282819539,0.011474609,0.210449219,-1.022216797, 
347,1702260304,0.478829354,0.279153764,1.856320143,-0.039049961,0.057511453,9.427082062,1.16868794,-1.494052887,0.214660108,0.016845703,0.211425781,-1.021728516, 
348,1702268637,0.478719413,0.279270798,1.856305361,-0.045034967,0.082229339,9.413358688,1.219583273,-1.457449913,0.295293748,0.013183594,0.209472656,-1.0234375, 
349,1702276970,0.479376733,0.280314744,1.849452972,-0.06647715,0.061270636,9.425751686,1.322680712,-1.33806181,0.30571869,0.017333984,0.210449219,-1.024902344, 
350,1702285303,0.478099704,0.281237632,1.849134326,-0.05101826,0.066613786,9.45580101,1.079396605,-1.360705018,0.258204281,0.014404297,0.2109375,-1.020751953, 
351,1702293636,0.477813363,0.280845344,1.842855453,-0.053140201,0.055234812,9.456896782,1.209414482,-1.511495948,0.297445297,0.015869141,0.212890625,-1.023681641, 
352,1702301969,0.476742774,0.280602574,1.842813015,-0.071354993,0.062680587,9.428646088,1.104242563,-1.501019716,0.291246653,0.017333984,0.209472656,-1.024902344, 
353,1702310302,0.477012187,0.280895174,1.835047126,-0.061982643,0.05681235,9.456160545,1.277112961,-1.428249717,0.247881755,0.015869141,0.213378906,-1.025146484, 
354,1702318635,0.477058142,0.281237751,1.834919691,-0.05855263,0.059994515,9.45043087,1.237385392,-1.430145264,0.282307297,0.011230469,0.208496094,-1.024414063, 
355,1702326968,0.47721535,0.280909061,1.826666713,-0.052483946,0.076715089,9.428911209,1.263486147,-1.505271912,0.249213696,0.013427734,0.211914063,-1.026855469, 
356,1702335301,0.476980388,0.281226754,1.827328801,-0.038193792,0.075669363,9.444703102,1.203241706,-1.433475137,0.375671208,0.014404297,0.211425781,-1.025390625, 
357,1702343634,0.476966351,0.281502128,1.817947507,-0.033862133,0.077774905,9.451847076,1.243353367,-1.431297779,0.35105589,0.016357422,0.214111328,-1.022705078, 
358,1702351967,0.476912349,0.280637652,1.818003654,-0.040612254,0.089171946,9.431655884,1.225653887,-1.575480342,0.303848833,0.015380859,0.211914063,-1.024169922, 
359,1702360300,0.475951642,0.281350315,1.811628461,-0.047903635,0.078165323,9.429548264,1.129933596,-1.378404498,0.335661739,0.015869141,0.210449219,-1.023681641, 
360,1702368633,0.476095825,0.281831235,1.811940789,-0.042690743,0.063188553,9.430327415,1.247784615,-1.41385448,0.333894342,0.014892578,0.211914063,-1.023193359, 
361,1702376966,0.476313025,0.281930059,1.803719759,-0.026363783,0.080440901,9.446603775,1.271426558,-1.453454256,0.232487604,0.015136719,0.208496094,-1.023925781, 
362,1702385299,0.476439059,0.282357723,1.803198099,-0.052519735,0.087755479,9.413474083,1.247169852,-1.420411706,0.233998835,0.014404297,0.213378906,-1.024169922, 
363,1702393632,0.476042002,0.281399935,1.796396375,-0.051039405,0.094049029,9.429768562,1.196709871,-1.581115484,0.277338147,0.016357422,0.210449219,-1.020263672, 
364,1702401965,0.476369888,0.281800687,1.795405507,-0.0357881,0.088688359,9.434714317,1.271221638,-1.42407465,0.178979471,0.016113281,0.208496094,-1.022216797, 
365,1702410298,0.476392508,0.281526089,1.789019227,-0.060073528,0.079121493,9.454090118,1.248348117,-1.497766733,0.279156715,0.017822266,0.212890625,-1.023681641, 
366,1702418631,0.476615578,0.281552047,1.789109707,-0.061927095,0.064722762,9.431538582,1.257927775,-1.469001889,0.307383627,0.016845703,0.212158203,-1.018798828, 
367,1702426964,0.476701736,0.282567233,1.784440517,-0.053194135,0.064155787,9.423791885,1.254418731,-1.34356904,0.277107567,0.015869141,0.212646484,-1.019775391, 
368,1702435297,0.477411717,0.282809228,1.784552693,-0.057244416,0.058090806,9.445015907,1.315739155,-1.443106055,0.31081596,0.014892578,0.209472656,-1.023193359, 
369,1702443630,0.47754091,0.282682985,1.777401567,-0.037532039,0.053898364,9.414535522,1.259669662,-1.480630994,0.353694171,0.014892578,0.212890625,-1.023681641, 
370,1702451963,0.477763146,0.283224344,1.777862072,-0.060543232,0.056316413,9.445982933,1.258619428,-1.405171156,0.352848887,0.018310547,0.209472656,-1.021728516, 
371,1702460296,0.477560848,0.283005089,1.769089103,-0.050944209,0.065598197,9.424600601,1.220351696,-1.492797494,0.275263369,0.016357422,0.209472656,-1.024414063, 
372,1702468629,0.478114843,0.282998443,1.768633604,-0.039981429,0.056179967,9.424607277,1.298039675,-1.473151445,0.243527323,0.015869141,0.208984375,-1.024414063, 
373,1702476962,0.478020459,0.283219337,1.76139462,-0.04001816,0.057772871,9.421100616,1.233568668,-1.43908453,0.266375214,0.011474609,0.2109375,-1.022216797, 
374,1702485295,0.477927774,0.283418804,1.761589527,-0.05267448,0.063569456,9.398083687,1.219250441,-1.448638797,0.319806546,0.014404297,0.210449219,-1.024414063, 
375,1702493628,0.478546113,0.282812744,1.749863505,-0.049915716,0.080085807,9.428309441,1.319017887,-1.537853003,0.328592211,0.012939453,0.214355469,-1.025878906, 
376,1702501961,0.478014112,0.283500016,1.749869347,-0.050893374,0.073634081,9.412575722,1.167919517,-1.389930725,0.296881765,0.013183594,0.208984375,-1.024414063, 
377,1702510294,0.477361441,0.283446729,1.739873409,-0.04960217,0.063817978,9.407870293,1.167509556,-1.47179389,0.302952349,0.013916016,0.2109375,-1.020263672, 
378,1702518627,0.478010803,0.283839226,1.74003005,-0.044826481,0.071488731,9.442193031,1.307952523,-1.424945712,0.315375298,0.010986328,0.2109375,-1.026855469, 
379,1702526960,0.477378309,0.284392178,1.731314063,-0.045241069,0.074833497,9.410984993,1.170096636,-1.399613023,0.351312041,0.016845703,0.209472656,-1.022705078, 
380,1702535293,0.47767216,0.284034282,1.731383204,-0.04066927,0.072924808,9.468087196,1.265765905,-1.515261292,0.305411339,0.011962891,0.212402344,-1.022216797, 
381,1702543626,0.477454782,0.284046322,1.725569606,-0.041543592,0.072230183,9.431671143,1.220121264,-1.465492725,0.26286608,0.013916016,0.210449219,-1.023925781, 
382,1702551959,0.477175444,0.28388533,1.725142837,-0.047636114,0.069443926,9.44553566,1.197913647,-1.490492225,0.24662666,0.017822266,0.212890625,-1.025146484, 
383,1702560292,0.477409482,0.284041703,1.715508103,-0.033471432,0.08640971,9.456353188,1.271951675,-1.447793245,0.360289782,0.013916016,0.212402344,-1.024902344, 
384,1702568625,0.477212876,0.283513606,1.715434313,-0.067788474,0.06233371,9.422487259,1.207532048,-1.535099626,0.288800538,0.011962891,0.212890625,-1.022705078, 
385,1702576958,0.476501852,0.284351557,1.706502199,-0.044875197,0.046239201,9.433041573,1.159248948,-1.366250396,0.317770183,0.015380859,0.212890625,-1.021728516, 
386,1702585291,0.476677418,0.2845487,1.705795646,-0.048156943,0.053905997,9.414615631,1.254303455,-1.44793427,0.211599186,0.015869141,0.2109375,-1.021728516, 
387,1702593624,0.476083249,0.283659816,1.698233128,-0.041086201,0.058359839,9.430573463,1.173119187,-1.573943496,0.29821372,0.014892578,0.2109375,-1.022705078, 
388,1702601957,0.475609124,0.283732325,1.69791019,-0.050059486,0.043862168,9.432649612,1.175655007,-1.463725328,0.258127451,0.016845703,0.2109375,-1.022705078, 
389,1702610290,0.475492418,0.28313449,1.691303253,-0.064285554,0.06581974,9.432600021,1.230674267,-1.538749576,0.332306266,0.011962891,0.2109375,-1.023193359, 
390,1702618623,0.475374728,0.282941788,1.691251278,-0.048195392,0.054360706,9.404708862,1.217867255,-1.494104147,0.291912645,0.015380859,0.213378906,-1.022705078, 
391,1702626956,0.474734068,0.283503264,1.680417538,-0.05007951,0.0628644,9.421154022,1.168457389,-1.400919318,0.269346476,0.013427734,0.2109375,-1.023193359, 
392,1702635289,0.474630862,0.2841281,1.680667996,-0.050850205,0.081353702,9.451498985,1.218584418,-1.39600122,0.327823728,0.014892578,0.210449219,-1.022216797, 
393,1702643622,0.474887431,0.283996165,1.67062366,-0.049882401,0.06262996,9.423542023,1.276856661,-1.485574365,0.131490663,0.014404297,0.209960938,-1.023193359, 
394,1702651955,0.474352121,0.284077615,1.670146704,-0.061011039,0.071176827,9.43893528,1.168431759,-1.461061478,0.24032554,0.015380859,0.2109375,-1.024902344, 
395,1702660288,0.473518252,0.284253657,1.662504554,-0.047978625,0.069273852,9.417961121,1.144687414,-1.447614074,0.33604598,0.015380859,0.211425781,-1.023193359, 
396,1702668621,0.473510444,0.284675092,1.661595583,-0.030151913,0.077372491,9.408750534,1.232211232,-1.420795798,0.188533574,0.011474609,0.211425781,-1.024414063, 
397,1702676954,0.473162383,0.284051508,1.654112816,-0.04289433,0.069853164,9.432781219,1.204496503,-1.544333458,0.217119053,0.014892578,0.211914063,-1.022705078, 
398,1702685287,0.472865194,0.284652203,1.654443979,-0.040519848,0.081123494,9.411808014,1.194455862,-1.39874208,0.337147355,0.014404297,0.2109375,-1.025390625, 
399,1702693620,0.472874612,0.284550369,1.645637035,-0.058826547,0.075812675,9.414049149,1.247528434,-1.479785442,0.288505912,0.013916016,0.209960938,-1.024902344, 
400,1702701953,0.47311914,0.284093678,1.646381617,-0.049437519,0.080733024,9.435284615,1.259567142,-1.525609374,0.386531562,0.015380859,0.209472656,-1.021728516, 
401,1702710286,0.473112971,0.2850371,1.638550043,-0.051298309,0.078817658,9.432229042,1.245492101,-1.35490334,0.292309642,0.011962891,0.211914063,-1.021728516, 
402,1702718619,0.473742038,0.284971267,1.639006257,-0.067519471,0.08637064,9.435206413,1.306121111,-1.479695797,0.351683468,0.01171875,0.207519531,-1.025390625, 
403,1702726952,0.474041909,0.284961015,1.63184309,-0.053860556,0.083351932,9.421629906,1.282594323,-1.469924092,0.299776196,0.013916016,0.209472656,-1.027832031, 
404,1702735285,0.474460125,0.284599811,1.63273263,-0.064768635,0.076193497,9.423405647,1.280212522,-1.513673186,0.404948294,0.015380859,0.210449219,-1.022705078, 
405,1702743618,0.474496543,0.284958631,1.62558496,-0.03906101,0.066613697,9.422157288,1.24906528,-1.426226139,0.275007218,0.014404297,0.212402344,-1.023193359, 
406,1702751951,0.47461918,0.284652174,1.625764608,-0.037632693,0.071148381,9.436736107,1.247016072,-1.506706119,0.319114894,0.013916016,0.211425781,-1.024902344, 
407,1702760284,0.474140435,0.285181075,1.619167089,-0.043122172,0.071013704,9.433868408,1.186118245,-1.405260801,0.295101553,0.014404297,0.211425781,-1.024902344, 
408,1702768617,0.473976761,0.286322027,1.61952126,-0.056061096,0.051440723,9.416455269,1.211604476,-1.334949851,0.337365091,0.012451172,0.211914063,-1.024414063, 
409,1702776950,0.473130733,0.286742747,1.6130054,-0.040798064,0.071260065,9.417615891,1.143137574,-1.418170452,0.290900856,0.012451172,0.209960938,-1.023925781, 
410,1702785283,0.472800702,0.286793619,1.612922311,-0.035471767,0.047289245,9.421023369,1.191830397,-1.466363668,0.287263632,0.012207031,0.209472656,-1.021728516, 
411,1702793616,0.471888274,0.285988003,1.602383614,-0.043486025,0.058517702,9.450695038,1.135491729,-1.564363718,0.332767338,0.017333984,0.209472656,-1.023193359, 
412,1702801949,0.471385449,0.286027402,1.602264166,-0.062029216,0.069388777,9.422391891,1.171902418,-1.466453314,0.281551659,0.018310547,0.210449219,-1.022705078, 
413,1702810282,0.471896708,0.286193728,1.597360969,-0.050473042,0.067418732,9.449433327,1.306005836,-1.450124264,0.266759455,0.015380859,0.209472656,-1.022216797, 
414,1702818615,0.471476644,0.286632419,1.597077847,-0.058231231,0.07241635,9.440873146,1.18134129,-1.417952657,0.26291731,0.016845703,0.2109375,-1.021728516, 
415,1702826948,0.470767379,0.28726849,1.589448929,-0.040772103,0.079898812,9.4482584,1.160452724,-1.392991543,0.267873645,0.016357422,0.212890625,-1.022705078, 
416,1702835281,0.471317679,0.287107497,1.590133071,-0.0427223,0.076294787,9.428681374,1.297617316,-1.490159512,0.380320191,0.016357422,0.211425781,-1.021728516, 
417,1702843614,0.47124964,0.287786931,1.58332479,-0.040716771,0.101521246,9.421410561,1.23638618,-1.388470769,0.275775641,0.013427734,0.213378906,-1.023193359, 
418,1702851947,0.471577704,0.288216919,1.583577991,-0.054828927,0.089468092,9.431256294,1.271247268,-1.419745922,0.326312572,0.014404297,0.209960938,-1.025390625, 
419,1702860280,0.471724391,0.288001776,1.576252937,-0.046584379,0.06670586,9.425134659,1.261488199,-1.495666265,0.27044788,0.015869141,0.211914063,-1.025878906, 
420,1702868613,0.472296536,0.288076878,1.576050758,-0.050516367,0.070012674,9.420027733,1.299666286,-1.461484194,0.272407353,0.016357422,0.212890625,-1.023681641, 
421,1702876946,0.471840024,0.288462102,1.571191788,-0.03784629,0.069447011,9.415549278,1.18993485,-1.422217488,0.415462881,0.014404297,0.214111328,-1.022216797, 
422,1702885279,0.47137031,0.288796872,1.571026087,-0.049506407,0.06676545,9.428196907,1.175321937,-1.432296753,0.276928276,0.012939453,0.211914063,-1.022705078, 
423,1702893612,0.471286684,0.288651377,1.562956929,-0.057321716,0.071916096,9.40116024,1.234298706,-1.486189127,0.212239534,0.015380859,0.211914063,-1.025390625, 
424,1702901945,0.471330971,0.289236426,1.56265676,-0.06633123,0.066354357,9.42302227,1.237346888,-1.40223825,0.261470109,0.014404297,0.212402344,-1.023681641, 
425,1702910278,0.471300781,0.290145069,1.55830133,-0.065590709,0.070729263,9.41001606,1.240971327,-1.359296203,0.440321535,0.016357422,0.212890625,-1.024658203, 
426,1702918611,0.470994204,0.290557116,1.55787158,-0.056297302,0.073810823,9.429512978,1.193661928,-1.422230601,0.244500682,0.016845703,0.212890625,-1.025146484, 
427,1702926944,0.471749485,0.289994508,1.552520871,-0.065913498,0.066207185,9.427584648,1.336128116,-1.537699342,0.22272858,0.013427734,0.212890625,-1.022216797, 
428,1702935277,0.47221747,0.290438235,1.552580833,-0.036852144,0.049124755,9.424685478,1.28679502,-1.41918242,0.304181844,0.014404297,0.210449219,-1.023681641, 
429,1702943610,0.472307473,0.29109928,1.54300487,-0.041527614,0.071441926,9.427423477,1.255110383,-1.390263915,0.322572857,0.012939453,0.211425781,-1.024414063, 
430,1702951943,0.472518742,0.290577829,1.543519497,-0.047084849,0.074871927,9.426121712,1.257108092,-1.533396125,0.359252423,0.013671875,0.20703125,-1.023925781, 
431,1702960276,0.472492844,0.290431291,1.536467075,-0.036648214,0.088115364,9.433670998,1.241304159,-1.487136841,0.363094568,0.013427734,0.211914063,-1.021240234, 
432,1702968609,0.472452998,0.290058404,1.536803603,-0.046347413,0.080357805,9.428131104,1.22678113,-1.515901923,0.338658631,0.014404297,0.2109375,-1.023681641, 
433,1702976942,0.474042565,0.289932519,1.529407382,-0.047196612,0.07597205,9.419640541,1.434435606,-1.485446453,0.242374703,0.014892578,0.2109375,-1.024902344, 
434,1702985275,0.474122703,0.290047318,1.528617382,-0.038757492,0.092858374,9.423420906,1.242277503,-1.457373023,0.200956449,0.013916016,0.211914063,-1.023193359, 
435,1702993608,0.474284351,0.289662391,1.523210287,-0.043328788,0.046877708,9.424057961,1.262999415,-1.51702857,0.23517707,0.013671875,0.209960938,-1.020263672, 
436,1703001941,0.474145442,0.289428353,1.523458242,-0.054495279,0.074982941,9.452774048,1.214972734,-1.499841452,0.327106595,0.013916016,0.211425781,-1.024414063, 
437,1703010274,0.474597514,0.289383471,1.516164184,-0.06445957,0.069145419,9.42497921,1.298526406,-1.475789785,0.248342797,0.015380859,0.212890625,-1.024658203, 
438,1703018607,0.475286871,0.289413363,1.516299367,-0.055784732,0.078754663,9.455098152,1.314893961,-1.46677351,0.314555585,0.013916016,0.2109375,-1.023193359, 
439,1703026940,0.475467145,0.289094836,1.510202765,-0.042288534,0.071932197,9.441757202,1.264869332,-1.509318709,0.307076246,0.013427734,0.211914063,-1.019775391, 
440,1703035273,0.476101071,0.28896904,1.510083556,-0.039555117,0.078129411,9.428422928,1.308285356,-1.486086726,0.282768369,0.013427734,0.212890625,-1.021240234, 
441,1703043606,0.476274759,0.288852721,1.503373146,-0.036744773,0.089281514,9.453449249,1.264818072,-1.484754682,0.265043259,0.015869141,0.210449219,-1.025390625, 
442,1703051939,0.476187944,0.289248407,1.503285527,-0.05808834,0.050895397,9.42935276,1.220403075,-1.42438221,0.286123842,0.014404297,0.209960938,-1.025878906, 
443,1703060272,0.475918084,0.289188206,1.499900103,-0.049710069,0.051634334,9.41958046,1.211079478,-1.477326512,0.273905814,0.011962891,0.213867188,-1.024169922, 
444,1703068605,0.475826293,0.288967967,1.49954021,-0.04797101,0.040694576,9.400304794,1.22147882,-1.497920275,0.254515827,0.014648438,0.208007813,-1.022705078, 
445,1703076938,0.476115108,0.289486974,1.491744637,-0.029725684,0.054046277,9.432880402,1.277778864,-1.408449888,0.246601045,0.014892578,0.211425781,-1.022705078, 
446,1703085271,0.47568506,0.289711416,1.492346287,-0.052032392,0.055506855,9.448163986,1.179894209,-1.443682432,0.369382918,0.015869141,0.211425781,-1.025390625, 
447,1703093604,0.475981951,0.289748907,1.487170577,-0.051051572,0.072866656,9.415620804,1.280391693,-1.465287805,0.345676899,0.014404297,0.211914063,-1.021728516, 
448,1703101937,0.475801557,0.289140821,1.486423373,-0.045921136,0.068564147,9.410264969,1.210567236,-1.545793653,0.207744271,0.019775391,0.2109375,-1.024658203, 
449,1703110270,0.47638014,0.289143771,1.479929805,-0.062607765,0.071613863,9.445221901,1.313177705,-1.468745708,0.309740096,0.018798828,0.208007813,-1.025390625, 
450,1703118603,0.476370811,0.289389223,1.479496121,-0.023213435,0.087943628,9.4274683,1.229765058,-1.442734599,0.243693843,0.013671875,0.20703125,-1.022216797, 
451,1703126936,0.476484358,0.289140254,1.476225019,-0.040832076,0.094301417,9.414230347,1.259400725,-1.501339912,0.223304883,0.011474609,0.211425781,-1.021240234, 
452,1703135269,0.475708067,0.288688749,1.476002216,-0.035375301,0.077333048,9.433866501,1.138283849,-1.526121736,0.271267563,0.014892578,0.211425781,-1.022216797, 
453,1703143602,0.474664122,0.289068252,1.457964063,-0.028540356,0.077962302,9.444553375,1.1183815,-1.423767209,0.279540956,0.014892578,0.211425781,-1.028320313, 
454,1703151935,0.474216849,0.289735854,1.457872152,-0.033557035,0.069220088,9.451620102,1.178088307,-1.392902255,0.285227329,0.015380859,0.211425781,-1.023193359, 
455,1703160268,0.473413378,0.289510429,1.451051116,-0.040185452,0.077318922,9.418689728,1.146890402,-1.496409535,0.238455728,0.018066406,0.208496094,-1.021728516, 
456,1703168601,0.474161506,0.290086538,1.451289415,-0.046394806,0.07645788,9.430776596,1.321310282,-1.40252018,0.326274097,0.017822266,0.208984375,-1.025390625, 
457,1703176934,0.474042028,0.290452182,1.452055216,-0.052228004,0.054530218,9.431639671,1.229880333,-1.425867677,0.376029789,0.013427734,0.212402344,-1.022705078, 
458,1703185267,0.47424832,0.289999336,1.452278018,-0.044469856,0.056311164,9.434742928,1.255981326,-1.525199771,0.324673295,0.011230469,0.209472656,-1.021728516, 
459,1703193600,0.474739611,0.290822536,1.449634552,-0.0687773,0.049094796,9.430747986,1.303239346,-1.37120676,0.286405563,0.015380859,0.212402344,-1.028808594, 
460,1703201933,0.47430712,0.291445196,1.45023334,-0.070506327,0.070384257,9.444286346,1.17890799,-1.396155,0.367500216,0.014892578,0.210449219,-1.024414063, 
461,1703210266,0.473949015,0.292416662,1.446155548,-0.061587464,0.077066533,9.439470291,1.200551987,-1.35353291,0.331819594,0.016845703,0.208984375,-1.024902344, 
462,1703218599,0.474036694,0.292500943,1.446189404,-0.037000597,0.089642264,9.443649292,1.242328763,-1.4619838,0.301389903,0.015380859,0.209960938,-1.022705078, 
463,1703226932,0.473902702,0.292725116,1.44113183,-0.039836116,0.07243856,9.436471939,1.226499319,-1.442337632,0.375312567,0.012939453,0.212890625,-1.026855469, 
464,1703235265,0.473533243,0.292227,1.440786719,-0.047909226,0.080394305,9.444348335,1.188462138,-1.530758023,0.256027102,0.012451172,0.2109375,-1.023925781, 
465,1703243598,0.473025173,0.293066412,1.436001539,-0.070209876,0.070070423,9.405355453,1.18146944,-1.370566607,0.313735992,0.013916016,0.21484375,-1.026367188, 
466,1703251931,0.472962439,0.292760521,1.435616374,-0.023919629,0.083199717,9.442338943,1.224629402,-1.508345366,0.251672685,0.015380859,0.212402344,-1.023193359, 
467,1703260264,0.473432422,0.292263776,1.430562019,-0.053476613,0.071013696,9.424550056,1.300396323,-1.530962944,0.161741093,0.014892578,0.213623047,-1.021728516, 
468,1703268597,0.47369203,0.292941093,1.430747509,-0.067133091,0.077402897,9.431317329,1.262077332,-1.390878558,0.318781942,0.016845703,0.211914063,-1.022705078, 
469,1703276930,0.473819792,0.293322265,1.426608801,-0.042309452,0.065027431,9.443081856,1.25923419,-1.423382998,0.366296321,0.017333984,0.208496094,-1.024902344, 
470,1703285263,0.473641753,0.293802291,1.426258087,-0.042384673,0.072252646,9.420671463,1.211002827,-1.414443851,0.254976928,0.014892578,0.2109375,-1.020751953, 
471,1703293596,0.472873151,0.293930799,1.428272605,-0.042716525,0.076819509,9.433581352,1.149963975,-1.453966618,0.355051756,0.015380859,0.2109375,-1.020751953, 
472,1703301929,0.473001957,0.294535667,1.42836225,-0.031030312,0.062857755,9.424647331,1.24665761,-1.399510503,0.306743264,0.013427734,0.213378906,-1.023681641, 
473,1703310262,0.472323924,0.294237167,1.423217297,-0.035659671,0.07237725,9.430197716,1.162873507,-1.506168246,0.328720272,0.013916016,0.209472656,-1.023925781, 
474,1703318595,0.471926063,0.293957442,1.422713518,-0.034196556,0.046237364,9.449234009,1.182878137,-1.505374074,0.237303078,0.014648438,0.208496094,-1.024414063, 
475,1703326928,0.471924931,0.293947577,1.417062521,-0.061617885,0.049166542,9.39491272,1.243635178,-1.471307397,0.357613176,0.014892578,0.211914063,-1.021240234, 
476,1703335261,0.471802324,0.293275863,1.417006612,-0.03255152,0.061961725,9.422574043,1.21645844,-1.551069975,0.291784525,0.013427734,0.210449219,-1.024414063, 
477,1703343594,0.471922427,0.292797893,1.411111712,-0.043295987,0.069059312,9.440063477,1.257223487,-1.528119683,0.37742573,0.012207031,0.208984375,-1.023925781, 
478,1703351927,0.473070472,0.292212695,1.411177874,-0.063760102,0.078028664,9.434391975,1.37004149,-1.540619493,0.304796606,0.014404297,0.213623047,-1.020751953, 
479,1703360260,0.473191679,0.286195695,1.414061785,-0.060860414,0.08199279,9.458167076,1.226396799,-1.497382522,0.282409698,0.014648438,0.208496094,-1.021240234, 
480,1703368593,0.472988725,0.285664976,1.414155841,-0.045655228,0.072850339,9.463259697,1.207698345,-1.533831596,0.309586406,0.01171875,0.208984375,-1.024902344, 
481,1703376926,0.473080099,0.285958052,1.408286095,-0.06115083,0.093846291,9.448666573,1.253330231,-1.43533206,0.281602889,0.013916016,0.209960938,-1.023193359, 
482,1703385259,0.473387867,0.286985129,1.408451438,-0.080188617,0.082783706,9.444579124,1.269121408,-1.345310926,0.314683706,0.015380859,0.212402344,-1.023193359, 
483,1703393592,0.47343424,0.28715384,1.402522683,-0.068100162,0.08022178,9.419843674,1.248630047,-1.450047493,0.320267588,0.014160156,0.208496094,-1.024902344, 
484,1703401925,0.47336787,0.287107557,1.402726054,-0.059400599,0.098969966,9.426908493,1.223655939,-1.474483371,0.319371074,0.014160156,0.208984375,-1.023925781, 
485,1703410258,0.473524541,0.287294984,1.392941356,-0.081389233,0.077389456,9.449938774,1.260130644,-1.448305607,0.288403481,0.016845703,0.211425781,-1.024658203, 
486,1703418591,0.474182576,0.287757814,1.392811298,-0.061242793,0.066095136,9.451002121,1.311000466,-1.413111567,0.279284835,0.012451172,0.210449219,-1.023193359, 
487,1703426924,0.474377453,0.287851602,1.387396693,-0.058026548,0.088896237,9.439797401,1.267008185,-1.459038138,0.23267974,0.012939453,0.212890625,-1.023681641, 
488,1703435257,0.474457651,0.287601411,1.386894464,-0.039240345,0.083539762,9.425676346,1.24036932,-1.501429558,0.234293401,0.016845703,0.2109375,-1.024902344, 
489,1703443590,0.474457651,0.287556797,1.37057507,-0.039670739,0.088103697,9.436782837,1.243366122,-1.473766088,0.379193097,0.013427734,0.212890625,-1.021728516, 
490,1703451923,0.473997682,0.287796468,1.370471478,-0.027056299,0.074831069,9.435117722,1.176180005,-1.441172123,0.282653093,0.013916016,0.211425781,-1.023193359, 
491,1703460256,0.474362671,0.286616445,1.364580989,-0.005215031,0.073967353,9.433168411,1.285514474,-1.612365007,0.302542537,0.014892578,0.212402344,-1.022705078, 
492,1703468589,0.474269718,0.286368132,1.364749432,-0.0227823,0.041018516,9.410629272,1.22008276,-1.49935472,0.315772265,0.014404297,0.211425781,-1.023193359, 
493,1703476922,0.474206597,0.286808103,1.35967648,-0.036999989,0.048174176,9.447031021,1.235835791,-1.416761875,0.255425185,0.014892578,0.208984375,-1.025390625, 
494,1703485255,0.473964542,0.286934465,1.359444499,-0.038857058,0.044618297,9.429414749,1.201538086,-1.45533669,0.267182052,0.012451172,0.2109375,-1.022216797, 
495,1703493588,0.473415345,0.287132859,1.355766058,-0.029929439,0.066837728,9.454581261,1.177204609,-1.446192503,0.20893532,0.014892578,0.213623047,-1.020751953, 
496,1703501921,0.472592592,0.286388814,1.355273366,-0.024951395,0.035574906,9.438676834,1.133173704,-1.559458613,0.237674475,0.016357422,0.211425781,-1.021728516, 
497,1703510254,0.471781343,0.28637594,1.349061847,-0.045535218,0.051716588,9.41211319,1.146237016,-1.471140742,0.341514587,0.012207031,0.208984375,-1.021728516, 
498,1703518587,0.471590936,0.286213815,1.34904933,-0.033772346,0.055685453,9.399734497,1.20755744,-1.488801599,0.293001205,0.016357422,0.214599609,-1.020263672, 
499,1703526920,0.472143352,0.286219686,1.340641022,-0.04157019,0.061973896,9.428117752,1.309630156,-1.469706297,0.230784252,0.015380859,0.209472656,-1.022216797, 
500,1703535253,0.472668618,0.286278605,1.341007233,-0.038599897,0.096899919,9.428749084,1.294184923,-1.462995529,0.33979845,0.014892578,0.211425781,-1.022705078, 
501,1703543586,0.473192722,0.286959171,1.335507631,-0.035678953,0.079983421,9.42477417,1.305800796,-1.38649857,0.32582584,0.015380859,0.210449219,-1.023193359, 
502,1703551919,0.473272145,0.287010849,1.335766196,-0.063111909,0.086098298,9.40724659,1.240907192,-1.463072062,0.326248467,0.011474609,0.212402344,-1.019775391, 
503,1703560252,0.473671019,0.28761372,1.331807494,-0.067268685,0.101356313,9.43258667,1.291777015,-1.396654487,0.281039357,0.012939453,0.210449219,-1.023925781, 
504,1703568585,0.473902285,0.287323475,1.332033873,-0.058490124,0.097307466,9.412008286,1.258324862,-1.504541755,0.322252661,0.014404297,0.211425781,-1.024169922, 
505,1703576918,0.473298758,0.286552608,1.323958158,-0.045312267,0.085928425,9.432309151,1.170468211,-1.56150794,0.349352568,0.013916016,0.213867188,-1.024658203, 
506,1703585251,0.473245829,0.286231369,1.324010611,-0.066554591,0.093870431,9.436171532,1.224411726,-1.508383989,0.302913994,0.015869141,0.213867188,-1.025146484, 
507,1703593584,0.473314881,0.286570936,1.320044518,-0.060534626,0.074768864,9.409873009,1.252164602,-1.428736329,0.253388822,0.015869141,0.211914063,-1.02734375, 
508,1703601917,0.473107398,0.28688997,1.320243955,-0.067538261,0.072930679,9.429686546,1.20636642,-1.431861401,0.318500191,0.013427734,0.210449219,-1.026367188, 
509,1703610250,0.472589433,0.287800997,1.315687776,-0.062885955,0.073757775,9.420236588,1.179292202,-1.360346437,0.259177625,0.016845703,0.209960938,-1.023193359, 
510,1703618583,0.473139703,0.287459314,1.315584898,-0.038859297,0.069373257,9.440484047,1.297309756,-1.510164142,0.282627493,0.013427734,0.211914063,-1.022705078, 
511,1703626916,0.47308144,0.287675977,1.314761996,-0.064697795,0.044170599,9.460885048,1.234580636,-1.444834828,0.294563681,0.013183594,0.208007813,-1.023925781, 
512,1703635249,0.472865462,0.287547112,1.314579129,-0.01918027,0.046300657,9.454131126,1.206648111,-1.484959483,0.273265481,0.015380859,0.211425781,-1.023193359, 
513,1703643582,0.472435236,0.287126601,1.304284453,-0.044306971,0.057493802,9.472931862,1.190690398,-1.520512223,0.318551421,0.012207031,0.209472656,-1.021728516, 
514,1703651915,0.47180146,0.287342399,1.30472672,-0.021996032,0.077247925,9.433850288,1.155393958,-1.443157196,0.348110259,0.014160156,0.208984375,-1.021240234, 
515,1703660248,0.472040087,0.288257837,1.302938461,-0.027001925,0.054571368,9.427616119,1.270273924,-1.359885335,0.328054309,0.012939453,0.2109375,-1.025390625, 
516,1703668581,0.471529633,0.288294137,1.302397132,-0.000887054,0.072129562,9.425270081,1.17000699,-1.465300798,0.230041474,0.012451172,0.209472656,-1.02734375, 
517,1703676914,0.470713437,0.287967741,1.293122649,-0.026180627,0.049491886,9.417624474,1.145045877,-1.509754181,0.292681038,0.017333984,0.210449219,-1.023193359, 
518,1703685247,0.471020669,0.288750321,1.293616772,-0.031082889,0.053313009,9.438559532,1.268301845,-1.375177145,0.35348928,0.014404297,0.208984375,-1.024414063, 
519,1703693580,0.471049488,0.288680345,1.284588695,-0.041125316,0.063389234,9.428031921,1.245991588,-1.478120565,0.150803804,0.014404297,0.211425781,-1.024169922, 
520,1703701913,0.470288783,0.28861624,1.284469843,-0.051565878,0.063506544,9.448112488,1.139897346,-1.477377772,0.281615704,0.014892578,0.211914063,-1.024902344, 
521,1703710246,0.469556361,0.287448168,1.279920697,-0.070607476,0.066738851,9.424418449,1.155522108,-1.609905839,0.263941884,0.015380859,0.209472656,-1.021728516, 
522,1703718579,0.469209135,0.286568701,1.280108571,-0.05393827,0.064310566,9.423149109,1.18853879,-1.57489109,0.318013519,0.011962891,0.212402344,-1.022216797, 
523,1703726912,0.470000744,0.285774708,1.275861025,-0.065299764,0.085305735,9.430278778,1.339304447,-1.566131353,0.190736428,0.015380859,0.2109375,-1.024902344, 
524,1703735245,0.47058776,0.285371125,1.275730371,-0.059237022,0.078535371,9.417682648,1.300498605,-1.517156601,0.279412866,0.01171875,0.208496094,-1.024414063, 
525,1703743578,0.470720321,0.285342991,1.272558928,-0.037684031,0.078556657,9.460044861,1.259977102,-1.472818613,0.338786662,0.012939453,0.213378906,-1.024902344, 
526,1703751911,0.470481724,0.285499603,1.273030758,-0.051049333,0.089205116,9.435062408,1.201730132,-1.450252295,0.3508766,0.012939453,0.214599609,-1.020751953, 
527,1703760244,0.471328795,0.285977155,1.264401436,-0.038339935,0.095693052,9.448168755,1.34493947,-1.411831021,0.258742213,0.015869141,0.209960938,-1.024902344, 
528,1703768577,0.471755743,0.285904586,1.264759421,-0.053278156,0.090277895,9.447085381,1.281300783,-1.47808218,0.337851733,0.013916016,0.209472656,-1.02734375, 
529,1703776910,0.471979886,0.285294145,1.261474371,-0.03327534,0.07023757,9.41559124,1.270043492,-1.543693185,0.269269675,0.014892578,0.211914063,-1.023193359, 
530,1703785243,0.4718481,0.285191298,1.261187434,-0.055744424,0.069560245,9.442747116,1.214460492,-1.482654333,0.261303604,0.014404297,0.211425781,-1.022705078, 
531,1703793576,0.471583843,0.284591168,1.254431009,-0.055696718,0.05544842,9.412992477,1.21133554,-1.541105986,0.275826871,0.016113281,0.208496094,-1.023925781, 
532,1703801909,0.471102804,0.284434706,1.254513264,-0.042616785,0.046064276,9.414624214,1.17414391,-1.488315344,0.305001527,0.013916016,0.211914063,-1.020751953, 
533,1703810242,0.471472055,0.283730268,1.258097887,-0.033631932,0.043403827,9.429020882,1.285949945,-1.554220557,0.260612041,0.011962891,0.2109375,-1.024414063, 
534,1703818575,0.472340554,0.284093738,1.258316755,-0.020126926,0.070265882,9.44197464,1.335295677,-1.42536819,0.320664644,0.013427734,0.211425781,-1.023193359, 
535,1703826908,0.473147899,0.284270644,1.24755621,-0.04435863,0.051177293,9.411831856,1.339035392,-1.448369741,0.390617043,0.014404297,0.214355469,-1.024169922, 
536,1703835241,0.472672522,0.283523083,1.246995091,-0.039851978,0.076132312,9.4426651,1.175501347,-1.559548259,0.227851436,0.015869141,0.208984375,-1.026367188, 
537,1703843574,0.472014517,0.283364803,1.248951912,-0.018415976,0.064313643,9.421326637,1.161836028,-1.487892509,0.346842349,0.011474609,0.211425781,-1.023193359, 
538,1703851907,0.471732289,0.283125252,1.248908162,-0.014099034,0.061139185,9.410388947,1.197875261,-1.499290824,0.28941524,0.011962891,0.212402344,-1.024414063, 
539,1703860240,0.471555144,0.282382399,1.236864924,-0.040342059,0.07116802,9.435127258,1.221530199,-1.55765295,0.312250346,0.012939453,0.212402344,-1.023193359, 
540,1703868573,0.471282095,0.283178061,1.237790823,-0.027950691,0.081097208,9.425730705,1.197811365,-1.37371707,0.404973835,0.012451172,0.210449219,-1.022705078, 
541,1703876906,0.47152254,0.283420682,1.22964108,-0.040595502,0.090627827,9.409995079,1.272425532,-1.440595627,0.231283739,0.013916016,0.209960938,-1.024902344, 
542,1703885239,0.471183419,0.283782423,1.229622483,-0.050187934,0.102352686,9.434472084,1.190664887,-1.425227165,0.291221023,0.015869141,0.208496094,-1.026855469, 
543,1703893572,0.471367419,0.284383267,1.223305225,-0.06894289,0.091516957,9.434433937,1.263101935,-1.396667361,0.287199616,0.011962891,0.209960938,-1.026855469, 
544,1703901905,0.470533192,0.283895016,1.223911166,-0.05910065,0.057661891,9.431390762,1.131534457,-1.527581811,0.368742555,0.013427734,0.213378906,-1.025390625, 
545,1703910238,0.470995069,0.282804668,1.220308423,-0.083178334,0.068718694,9.411336899,1.297553062,-1.601299524,0.214660078,0.012939453,0.211425781,-1.025390625, 
546,1703918571,0.472127289,0.282685548,1.220388889,-0.089348249,0.078693606,9.417099953,1.366685867,-1.482654333,0.303413421,0.013427734,0.211914063,-1.024414063, 
547,1703926904,0.471914381,0.282321632,1.214697838,-0.073460408,0.064800575,9.428115845,1.216727257,-1.513788342,0.303938478,0.014892578,0.211914063,-1.024902344, 
548,1703935237,0.471199214,0.281719565,1.214352608,-0.0535083,0.07429824,9.436338425,1.14601934,-1.541746378,0.253568113,0.016357422,0.209960938,-1.023193359, 
549,1703943570,0.47083354,0.280917227,1.211654067,-0.066118248,0.069016993,9.438773155,1.197286248,-1.566553831,0.263288736,0.015869141,0.209960938,-1.021728516, 
550,1703951903,0.470448375,0.280939281,1.211367726,-0.063664384,0.085836582,9.405758858,1.18517065,-1.4679389,0.260752916,0.011962891,0.212402344,-1.026855469, 
551,1703960236,0.47072041,0.280080467,1.203122973,-0.04363808,0.077562764,9.421206474,1.274679542,-1.572585702,0.293526292,0.015869141,0.213378906,-1.023193359, 
552,1703968569,0.470448822,0.280353069,1.202763796,-0.038833626,0.060240172,9.432059288,1.199834943,-1.437317252,0.251775116,0.012939453,0.213378906,-1.02734375, 
553,1703976902,0.470055908,0.280037999,1.204404473,-0.028266262,0.059338078,9.427558899,1.19366169,-1.507679582,0.35597384,0.018310547,0.208984375,-1.022705078, 
554,1703985235,0.469444513,0.279087931,1.203468204,-0.047556419,0.072682872,9.430836678,1.159543633,-1.583267212,0.184153557,0.014892578,0.214355469,-1.024658203, 
555,1703993568,0.46841839,0.27861768,1.196818709,-0.03946716,0.054985225,9.422768593,1.118483901,-1.527402401,0.173984692,0.014648438,0.207519531,-1.023925781, 
556,1704001901,0.46838963,0.278489321,1.19696188,-0.013138935,0.06517864,9.439344406,1.227574944,-1.485651255,0.311712414,0.014648438,0.20703125,-1.024902344, 
557,1704010234,0.468494594,0.278795511,1.187828779,-0.027919043,0.065250881,9.437836647,1.254995227,-1.433308721,0.18247582,0.014892578,0.2109375,-1.023193359, 
558,1704018567,0.468879908,0.278854549,1.187780142,-0.042393934,0.073038198,9.422551155,1.277535439,-1.462726474,0.289517671,0.012451172,0.214355469,-1.025878906, 
559,1704026900,0.468723565,0.279423535,1.18444705,-0.0116229,0.085702471,9.443896294,1.223002791,-1.400752783,0.29953289,0.016357422,0.2109375,-1.021728516, 
560,1704035233,0.468612075,0.279945433,1.18434155,-0.035238136,0.086788833,9.415560722,1.218533158,-1.408168197,0.282051146,0.016357422,0.211914063,-1.025390625, 
561,1704043566,0.467409015,0.27998358,1.183806419,-0.037774283,0.064107291,9.429662704,1.097608447,-1.464954853,0.33338207,0.012939453,0.211914063,-1.024902344, 
562,1704051899,0.467446685,0.279778838,1.184233904,-0.047641601,0.056310788,9.426497459,1.234593272,-1.492336512,0.346214831,0.013916016,0.209960938,-1.022705078, 
563,1704060232,0.467113495,0.279785246,1.18197751,-0.038264569,0.070382774,9.422493935,1.201589346,-1.470077753,0.258268327,0.011962891,0.2109375,-1.023193359, 
564,1704068565,0.467058629,0.279336065,1.181628346,-0.05770883,0.069365218,9.429107666,1.225321174,-1.523278713,0.25297901,0.014892578,0.210449219,-1.022216797, 
565,1704076898,0.465894789,0.279613942,1.182873368,-0.039828759,0.059008606,9.439511299,1.101540208,-1.436420679,0.282396942,0.011962891,0.209960938,-1.023925781, 
566,1704085231,0.46546337,0.279562533,1.183108807,-0.061790045,0.073596567,9.437433243,1.180828929,-1.474816442,0.322239876,0.011962891,0.2109375,-1.023193359, 
567,1704093564,0.465704113,0.279460549,1.178276777,-0.055763293,0.075494401,9.4406147,1.2696594,-1.482142091,0.297496557,0.015380859,0.213378906,-1.023193359, 
568,1704101897,0.465528578,0.278406113,1.177622437,-0.07754755,0.061758865,9.430306435,1.210797668,-1.597354889,0.218169272,0.014892578,0.210449219,-1.022705078, 
569,1704110230,0.465743721,0.278945982,1.177356124,-0.073436499,0.060087457,9.432278633,1.267456293,-1.403941751,0.379129082,0.014160156,0.208984375,-1.023193359, 
570,1704118563,0.465503156,0.279085487,1.177478671,-0.059658471,0.06035075,9.438364983,1.201755762,-1.452762485,0.310021877,0.013916016,0.213378906,-1.022705078, 
571,1704126896,0.465132892,0.278764516,1.17870748,-0.046410467,0.069074243,9.438096046,1.197939277,-1.507397652,0.365707219,0.012451172,0.212890625,-1.022216797, 
572,1704135229,0.464085788,0.279083818,1.178710222,-0.05612104,0.079020999,9.444306374,1.10577929,-1.430990338,0.295063198,0.014404297,0.208984375,-1.024414063, 
573,1704143562,0.464609534,0.279668242,1.181112766,-0.04294771,0.057629295,9.437810898,1.304212928,-1.399715543,0.279566586,0.013427734,0.209960938,-1.025878906, 
574,1704151895,0.464590847,0.279555053,1.180467606,-0.020882238,0.074916385,9.431824684,1.228650689,-1.48426795,0.217887476,0.015380859,0.2109375,-1.023193359, 
575,1704160228,0.465155035,0.279671669,1.174836874,-0.030216502,0.106901228,9.437544823,1.310462594,-1.455733657,0.311712384,0.016357422,0.211425781,-1.022216797, 
576,1704168561,0.465187222,0.279577047,1.174694896,-0.010616597,0.070408225,9.409578323,1.234106779,-1.481220126,0.278285861,0.013183594,0.208496094,-1.022705078, 
577,1704176894,0.464867204,0.279692501,1.17098856,-0.02340661,0.079236418,9.42184639,1.204342961,-1.457091451,0.165378317,0.015869141,0.212890625,-1.025146484, 
578,1704185227,0.465661585,0.279330701,1.170125723,-0.027982311,0.064069971,9.418816566,1.327060699,-1.513212204,0.191889048,0.013427734,0.212646484,-1.019775391, 
579,1704193560,0.464658052,0.279828131,1.16553545,-0.012452302,0.069553055,9.420473099,1.121736884,-1.410345316,0.25530985,0.013916016,0.212402344,-1.024169922, 
580,1704201893,0.464133412,0.280256867,1.165554166,-0.048195247,0.076571763,9.41354084,1.16868782,-1.418593168,0.297189146,0.013916016,0.211914063,-1.023681641, 
581,1704210226,0.465147257,0.279809326,1.160977006,-0.056381445,0.068468697,9.425086975,1.36212635,-1.522228241,0.28064236,0.014404297,0.212402344,-1.023193359, 
582,1704218559,0.465386003,0.280017257,1.161185384,-0.058868051,0.051476281,9.436927795,1.26034832,-1.444834828,0.320818245,0.016845703,0.210449219,-1.024169922, 
583,1704226892,0.465024054,0.280448437,1.159717321,-0.053318422,0.058383703,9.43407917,1.19743979,-1.416787386,0.308497787,0.011474609,0.209472656,-1.026367188, 
584,1704235225,0.464891493,0.280821532,1.160955429,-0.038241066,0.072272003,9.447823524,1.215638757,-1.424740553,0.442626745,0.015625,0.207519531,-1.026855469, 
585,1704243558,0.463883817,0.281107217,1.162508845,-0.053178031,0.063397095,9.432533264,1.119739056,-1.434806943,0.385045946,0.015380859,0.2109375,-1.023681641, 
586,1704251891,0.463449627,0.281175077,1.162260056,-0.069659926,0.075817928,9.444893837,1.179266691,-1.461727619,0.264300466,0.013671875,0.208984375,-1.024414063, 
587,1704260224,0.463918775,0.280523688,1.159215808,-0.053064261,0.075796343,9.415336609,1.297552943,-1.547458291,0.226801232,0.016845703,0.213378906,-1.026367188, 
588,1704268557,0.463679403,0.280516297,1.158686876,-0.050843544,0.065072663,9.418513298,1.203382373,-1.470410705,0.230323181,0.015380859,0.212402344,-1.024169922, 
589,1704276890,0.463784426,0.280828238,1.162128568,-0.053083848,0.046437237,9.434194565,1.253970504,-1.433667183,0.190672368,0.013671875,0.208984375,-1.024414063, 
590,1704285223,0.463305116,0.280741781,1.16256249,-0.064189069,0.076846033,9.425431252,1.174450994,-1.478735328,0.346112341,0.015380859,0.209472656,-1.024414063, 
591,1704293556,0.462971359,0.280591726,1.163170218,-0.053034414,0.079742491,9.438962936,1.200705647,-1.487264872,0.346573383,0.011962891,0.213867188,-1.023193359, 
592,1704301889,0.462821454,0.280755073,1.163322568,-0.067220435,0.078985788,9.413471222,1.21384573,-1.449791193,0.312506467,0.014404297,0.209960938,-1.023925781, 
593,1704310222,0.463299036,0.281337231,1.15669322,-0.045584869,0.063224621,9.442465782,1.297783732,-1.400407195,0.302849919,0.013916016,0.208984375,-1.025390625, 
594,1704318555,0.463323981,0.281358987,1.156832933,-0.046699502,0.079572119,9.458037376,1.233427882,-1.466581464,0.312160701,0.012939453,0.2109375,-1.022705078, 
595,1704326888,0.463037163,0.281248987,1.155891776,-0.033358339,0.081737891,9.430498123,1.20740366,-1.483614922,0.295024753,0.014160156,0.208007813,-1.022216797, 
596,1704335221,0.461873621,0.281235665,1.155964494,-0.020617262,0.068681814,9.415819168,1.091320038,-1.470193028,0.303375006,0.012207031,0.208984375,-1.023925781, 
597,1704343554,0.462122768,0.281155109,1.147607088,-0.042985857,0.059229217,9.44615078,1.271439195,-1.480221033,0.343333215,0.014404297,0.211425781,-1.02734375, 
598,1704351887,0.462012351,0.281439662,1.14790225,-0.010673672,0.050517544,9.439594269,1.218507648,-1.43424356,0.329463154,0.01171875,0.208984375,-1.023925781, 
599,1704360220,0.461621225,0.281892329,1.145223856,-0.033545963,0.06295298,9.415692329,1.192739844,-1.415826797,0.359764785,0.011962891,0.212402344,-1.025390625, 
600,1704368553,0.462464005,0.28197524,1.145351052,-0.043505393,0.067799501,9.409469604,1.333771586,-1.459806561,0.310252428,0.012939453,0.211425781,-1.022216797, 
601,1704376886,0.462975889,0.282063216,1.140290856,-0.042583402,0.066426992,9.430384636,1.301574469,-1.458346367,0.269474566,0.014404297,0.209960938,-1.023925781, 
602,1704385219,0.463618994,0.282699317,1.141081214,-0.028990233,0.059768625,9.422344208,1.308554292,-1.392748356,0.388875306,0.013427734,0.209960938,-1.023193359, 
603,1704393552,0.463386178,0.283222556,1.137705326,-0.04887525,0.056801487,9.425738335,1.213282228,-1.406067729,0.394139022,0.015380859,0.211914063,-1.022705078, 
604,1704401885,0.463964194,0.283081561,1.138196707,-0.040795807,0.053749859,9.417983055,1.300114512,-1.486778259,0.353386819,0.012207031,0.207519531,-1.0234375, 
605,1704410218,0.463711858,0.283411205,1.133309126,-0.065394089,0.044338606,9.42831707,1.210336685,-1.42888999,0.277133197,0.015625,0.208007813,-1.024902344, 
606,1704418551,0.464139491,0.28332755,1.133520722,-0.058099359,0.065215155,9.436668396,1.283183455,-1.480195403,0.319575995,0.015380859,0.213378906,-1.025146484, 
607,1704426884,0.463764518,0.284000397,1.130409002,-0.057428602,0.085312344,9.434883118,1.197068453,-1.388419628,0.292220056,0.014892578,0.213867188,-1.024169922, 
608,1704435217,0.462888867,0.284442991,1.130196333,-0.043732464,0.071341895,9.42942524,1.126040101,-1.416774511,0.268808573,0.010742188,0.209472656,-1.024414063, 
609,1704443550,0.463064581,0.284280092,1.130250216,-0.057141151,0.063825995,9.428720474,1.262615204,-1.489083409,0.332946628,0.016845703,0.211914063,-1.025390625, 
610,1704451883,0.463342905,0.284607679,1.130293846,-0.071457475,0.068181023,9.415760994,1.264536381,-1.430093884,0.299981117,0.014404297,0.209960938,-1.024414063, 
611,1704460216,0.46322158,0.285384238,1.129626513,-0.052066438,0.076937683,9.447980881,1.22667861,-1.377046943,0.238660634,0.018310547,0.212402344,-1.024658203, 
612,1704468549,0.462204129,0.285937697,1.129638433,-0.051852442,0.087339222,9.460268974,1.109954476,-1.401995182,0.295421779,0.014892578,0.211425781,-1.023681641, 
613,1704476882,0.462334275,0.28643766,1.128783226,-0.055623449,0.069804899,9.437081337,1.257108212,-1.410166025,0.332255036,0.015869141,0.213378906,-1.024658203, 
614,1704485215,0.462763399,0.286310971,1.129624724,-0.051577274,0.083965048,9.450284004,1.281723499,-1.484319329,0.395624667,0.015869141,0.211914063,-1.024169922, 
615,1704493548,0.462872803,0.286483198,1.126036048,-0.046713952,0.063948378,9.420707703,1.253407001,-1.447985411,0.332959414,0.014404297,0.212402344,-1.023681641, 
616,1704501881,0.462478131,0.287046432,1.126126289,-0.038962387,0.073914729,9.461798668,1.184696913,-1.402507544,0.305385739,0.010986328,0.211425781,-1.022705078, 
617,1704510214,0.463064313,0.287239045,1.12310636,-0.039313324,0.05611198,9.436344147,1.311102986,-1.447870255,0.259997308,0.013916016,0.209472656,-1.024414063, 
618,1704518547,0.463223964,0.288258344,1.122818589,-0.027662946,0.047384225,9.441785812,1.251447439,-1.346796393,0.258357942,0.014892578,0.210449219,-1.020751953, 
619,1704526880,0.462754458,0.288217872,1.113883853,-0.024570825,0.048141882,9.45099926,1.184312582,-1.475379944,0.238711864,0.016357422,0.212890625,-1.023681641, 
620,1704535213,0.462402642,0.288502812,1.114365816,-0.027074946,0.060182348,9.428159714,1.189179182,-1.434499621,0.352951318,0.012939453,0.211914063,-1.024414063, 
621,1704543546,0.462676287,0.288550049,1.11156249,-0.021852657,0.070389271,9.423020363,1.273655176,-1.464827061,0.243706644,0.012207031,0.208496094,-1.022949219, 
622,1704551879,0.462453932,0.288107425,1.111476064,-0.022374054,0.051559631,9.436807632,1.204829454,-1.522535682,0.284458876,0.012939453,0.210449219,-1.023925781, 
623,1704560212,0.461616248,0.287555605,1.109851003,-0.044181414,0.066468149,9.42000103,1.140435338,-1.535470963,0.332255036,0.010986328,0.212402344,-1.025390625, 
624,1704568545,0.461201102,0.286805838,1.110455632,-0.029019075,0.069457047,9.434774399,1.182058692,-1.558651805,0.36865291,0.014648438,0.208984375,-1.022705078, 
625,1704576878,0.461900562,0.286649346,1.095702648,-0.035754003,0.080944613,9.421876907,1.325024247,-1.488135815,0.253068626,0.011962891,0.211425781,-1.022216797, 
626,1704585211,0.461884946,0.287532687,1.096687913,-0.03959256,0.075205564,9.434688568,1.228817225,-1.362690091,0.412107438,0.015380859,0.209960938,-1.023681641, 
627,1704593544,0.461710483,0.287203282,1.089437842,-0.050846845,0.066096567,9.435837746,1.219877839,-1.50967741,0.28439483,0.012939453,0.212890625,-1.022216797, 
628,1704601877,0.462147355,0.287008941,1.089295864,-0.057008725,0.065766089,9.416725159,1.283939004,-1.492746234,0.279118299,0.014404297,0.211425781,-1.024169922, 
629,1704610210,0.46248129,0.286201477,1.081595898,-0.068375356,0.066834792,9.440969467,1.281493068,-1.566387415,0.257154107,0.012939453,0.210449219,-1.026367188, 
630,1704618543,0.46272856,0.28681916,1.080957532,-0.064714149,0.075572632,9.436281204,1.261398554,-1.395604372,0.21751608,0.015136719,0.208984375,-1.022216797, 
631,1704626876,0.461876273,0.286293149,1.081374764,-0.022037404,0.086595237,9.461200714,1.140166521,-1.533473015,0.253350407,0.015625,0.208496094,-1.022705078, 
632,1704635209,0.461846083,0.285463929,1.081193924,-0.04386694,0.078518182,9.43769455,1.226678491,-1.56969142,0.274213195,0.012939453,0.212890625,-1.021728516, 
633,1704643542,0.461552322,0.285362571,1.079531312,-0.036050756,0.085869409,9.423243523,1.205751538,-1.4817065,0.311763644,0.013427734,0.212890625,-1.025878906, 
634,1704651875,0.461336583,0.285514385,1.079208732,-0.046943359,0.082675353,9.410713196,1.205802917,-1.451866031,0.257410258,0.014892578,0.210449219,-1.025390625, 
635,1704660208,0.461395651,0.285605788,1.073779941,-0.042135037,0.08691255,9.417464256,1.249244452,-1.458756328,0.147832543,0.018310547,0.208984375,-1.021728516, 
636,1704668541,0.461225331,0.286031067,1.074337602,-0.051339082,0.07189481,9.461852074,1.210157394,-1.418004155,0.362172484,0.016113281,0.208007813,-1.024902344, 
637,1704676874,0.460707039,0.28680712,1.077660084,-0.040439587,0.059074745,9.44925499,1.178408384,-1.3773669,0.202378064,0.008789063,0.209960938,-1.024414063, 
638,1704685207,0.460184544,0.287050754,1.077431679,-0.038057465,0.061775621,9.411815643,1.168841481,-1.441005588,0.267604738,0.012695313,0.209960938,-1.021240234, 
639,1704693540,0.460074037,0.286640882,1.071480155,-0.049983807,0.060798362,9.419629097,1.228830099,-1.51743865,0.269500226,0.015869141,0.212890625,-1.022705078, 
640,1704701873,0.460160881,0.286754072,1.071160197,-0.046681207,0.080936916,9.450847626,1.241995811,-1.457450032,0.256872356,0.013916016,0.212402344,-1.026855469, 
641,1704710206,0.459515601,0.286556095,1.066865087,-0.056001876,0.058242466,9.414295197,1.162591696,-1.493873358,0.234844103,0.012451172,0.210449219,-1.02734375, 
642,1704718539,0.459322393,0.286853313,1.067103744,-0.039877076,0.069564395,9.420505524,1.209107161,-1.433423758,0.323623002,0.016357422,0.211425781,-1.023681641, 
643,1704726872,0.458623022,0.286452264,1.060872316,-0.036949545,0.066511497,9.428346634,1.15613687,-1.516823649,0.264633477,0.012451172,0.211425781,-1.023925781, 
644,1704735205,0.457900852,0.286000341,1.061421871,-0.040371925,0.075628705,9.413361549,1.144636273,-1.524226427,0.361352831,0.013427734,0.211914063,-1.022216797, 
645,1704743538,0.45804131,0.285470247,1.057488203,-0.043009069,0.067332149,9.422595024,1.25664711,-1.53221786,0.363914222,0.017089844,0.208007813,-1.022216797, 
646,1704751871,0.457662106,0.285590708,1.057961106,-0.033532567,0.061500374,9.437322617,1.186182261,-1.454555511,0.352797687,0.013916016,0.212402344,-1.022705078, 
647,1704760204,0.456878245,0.284953535,1.059424996,-0.057554688,0.077965699,9.418820381,1.146429181,-1.544845581,0.319652826,0.015869141,0.212402344,-1.022705078, 
648,1704768537,0.456542432,0.284876853,1.059491754,-0.056354202,0.075063653,9.426925659,1.190703273,-1.478978634,0.302862704,0.013183594,0.208984375,-1.0234375, 
649,1704776870,0.456066519,0.285157293,1.054998755,-0.078010246,0.093821242,9.411560059,1.183966756,-1.43533206,0.315592974,0.012451172,0.211425781,-1.023925781, 
650,1704785203,0.455583543,0.285242498,1.055025339,-0.05078043,0.090579249,9.421557426,1.1725173,-1.459307075,0.298072904,0.015869141,0.210449219,-1.021240234, 
651,1704793536,0.454825938,0.285884857,1.055095196,-0.048733287,0.067222252,9.428174019,1.150437713,-1.391762257,0.32197094,0.014404297,0.211425781,-1.023681641, 
652,1704801869,0.455339521,0.286133081,1.055000901,-0.053359382,0.070243448,9.408454895,1.293608546,-1.440442085,0.283511162,0.012451172,0.214355469,-1.024658203, 
653,1704810202,0.455340654,0.286437511,1.052062154,-0.056341112,0.070512675,9.426087379,1.239921212,-1.433219075,0.337915808,0.017333984,0.211425781,-1.021728516, 
654,1704818535,0.455874681,0.28686443,1.051746249,-0.047968984,0.060111366,9.448926926,1.295273542,-1.419105649,0.255822182,0.014892578,0.2109375,-1.025390625, 
655,1704826868,0.456193477,0.286931008,1.049126744,-0.057211734,0.058409985,9.449071884,1.279443741,-1.460421085,0.249469832,0.014892578,0.212890625,-1.024658203, 
656,1704835201,0.456467092,0.286629796,1.049152136,-0.047453381,0.082197525,9.419297218,1.264203191,-1.506680369,0.299366355,0.017333984,0.209960938,-1.021240234, 
657,1704843534,0.455954194,0.28725782,1.04859364,-0.037660744,0.065939322,9.438939095,1.177115083,-1.393645048,0.325185537,0.014892578,0.210449219,-1.026367188, 
658,1704851867,0.45492506,0.28784591,1.048889995,-0.030848633,0.075528428,9.44475174,1.108276725,-1.398959756,0.330397993,0.013916016,0.211914063,-1.023193359, 
659,1704860200,0.455369741,0.288253754,1.047515869,-0.030873511,0.077668793,9.418857574,1.294095278,-1.421001077,0.308664352,0.012939453,0.2109375,-1.024414063, 
660,1704868533,0.455314249,0.288622707,1.047424078,-0.030201703,0.077841014,9.436003685,1.224834323,-1.424791813,0.284177154,0.014892578,0.213378906,-1.022705078, 
661,1704876866,0.455720484,0.289249539,1.040324807,-0.048602644,0.074651279,9.437651634,1.289407969,-1.39400363,0.23656027,0.013427734,0.211425781,-1.026855469, 
662,1704885199,0.455445349,0.288864732,1.040778279,-0.042261675,0.048631564,9.423514366,1.197030067,-1.515952826,0.350889415,0.014648438,0.208984375,-1.022216797, 
663,1704893532,0.455221981,0.28912434,1.038689494,-0.049986221,0.090700872,9.43506813,1.214204431,-1.437291622,0.321881294,0.011474609,0.211914063,-1.023925781, 
664,1704901865,0.454825729,0.289182156,1.03918457,-0.041937146,0.071418509,9.431078911,1.183313489,-1.462854385,0.355256617,0.014892578,0.2109375,-1.027832031, 
665,1704910198,0.455153018,0.287840247,1.04035759,-0.041257501,0.064541042,9.437825203,1.278342605,-1.628962994,0.381485641,0.015380859,0.209472656,-1.022705078, 
666,1704918531,0.455913097,0.287216872,1.04015553,-0.04957493,0.069343746,9.414793015,1.322693467,-1.545678139,0.271254748,0.013916016,0.212402344,-1.020263672, 
667,1704926864,0.455741018,0.286393762,1.037917614,-0.053171419,0.065406092,9.427513123,1.219378471,-1.569153547,0.212508485,0.010742188,0.209472656,-1.025390625, 
668,1704935197,0.45613429,0.285969019,1.03790319,-0.057580303,0.078735113,9.430808067,1.278649688,-1.520640254,0.294294745,0.014892578,0.214599609,-1.022705078, 
669,1704943530,0.456564039,0.286612689,1.029591799,-0.055276796,0.091502845,9.429467201,1.291495442,-1.390430331,0.35470593,0.013427734,0.212402344,-1.022705078, 
670,1704951863,0.457342654,0.28675735,1.029314756,-0.049527302,0.078997761,9.434317589,1.325126886,-1.452493548,0.262161672,0.014404297,0.212402344,-1.024169922, 
671,1704960196,0.457871139,0.286736161,1.024263501,-0.054881163,0.077899106,9.409648895,1.303585172,-1.471524835,0.378501505,0.013671875,0.208496094,-1.025390625, 
672,1704968529,0.45761767,0.287280649,1.024639845,-0.056346837,0.07963901,9.42324543,1.199629903,-1.404889464,0.339145243,0.013427734,0.209960938,-1.025390625, 
673,1704976862,0.45747903,0.28699556,1.021244407,-0.046910282,0.060448367,9.391060829,1.22269547,-1.503171444,0.381344736,0.012939453,0.214355469,-1.024169922, 
674,1704985195,0.457548201,0.287117183,1.021416426,-0.053784337,0.077978142,9.427759171,1.240113139,-1.454658031,0.316182137,0.012695313,0.209472656,-1.0234375, 
675,1704993528,0.45736298,0.287443817,1.020000458,-0.046025611,0.05675441,9.422217369,1.2178545,-1.4304142,0.27681306,0.016845703,0.212890625,-1.023681641, 
676,1705001861,0.457302898,0.287858367,1.019221067,-0.038992062,0.052572735,9.420314789,1.224078774,-1.420296669,0.201660886,0.015380859,0.211914063,-1.022705078, 
677,1705010194,0.456900597,0.287631333,1.018879414,-0.03347579,0.052191298,9.420014381,1.192419529,-1.496844649,0.369997621,0.015380859,0.209960938,-1.024902344, 
678,1705018527,0.456807226,0.287591457,1.019070625,-0.030618822,0.052249666,9.451786041,1.220351815,-1.474048257,0.318807602,0.011962891,0.211425781,-1.019775391, 
679,1705026860,0.456340581,0.287610412,1.018034101,-0.061984945,0.056776479,9.424725533,1.182801485,-1.467260242,0.367269725,0.014892578,0.210449219,-1.024902344, 
680,1705035193,0.45612368,0.288646877,1.017806649,-0.047360148,0.068968475,9.406667709,1.205213785,-1.345362067,0.265914172,0.014404297,0.2109375,-1.025878906, 
681,1705043526,0.455718189,0.288586944,1.016391754,-0.037515435,0.064963438,9.437830925,1.190613866,-1.476993799,0.317911088,0.015869141,0.211425781,-1.022216797, 
682,1705051859,0.455139011,0.288765579,1.017069221,-0.035194617,0.066825904,9.43962574,1.162361026,-1.446743131,0.375773609,0.014892578,0.209472656,-1.028808594, 
683,1705060192,0.455749065,0.288424164,1.017172694,-0.043049343,0.075371727,9.434639931,1.313305855,-1.509933352,0.268116981,0.013427734,0.215332031,-1.027832031, 
684,1705068525,0.455754846,0.289158821,1.016780615,-0.02056051,0.069696046,9.436231613,1.231289029,-1.383245349,0.24657543,0.012451172,0.212402344,-1.023193359, 
685,1705076858,0.456184119,0.288893729,1.012922168,-0.047344975,0.099000037,9.461381912,1.291149616,-1.499969602,0.344908535,0.014892578,0.211425781,-1.024902344, 
686,1705085191,0.456556052,0.288837731,1.012585878,-0.034680333,0.060288027,9.405056,1.27667737,-1.477301002,0.255617231,0.013916016,0.211914063,-1.022216797, 
687,1705093524,0.456167489,0.289025128,1.009690166,-0.048470661,0.078840159,9.418460846,1.193764091,-1.447306514,0.241785556,0.015380859,0.209960938,-1.024414063, 
688,1705101857,0.456313789,0.288300931,1.009266496,-0.059739843,0.082242422,9.416495323,1.248373866,-1.556653976,0.244500682,0.013916016,0.210449219,-1.023925781, 
689,1705110190,0.456253439,0.28901127,1.010957837,-0.042741258,0.064435259,9.409197807,1.232800245,-1.384346843,0.3107647,0.014160156,0.209472656,-1.022216797, 
690,1705118523,0.456056118,0.28877297,1.010761857,-0.058042388,0.071004197,9.416783333,1.206827641,-1.498381615,0.271984786,0.014404297,0.209472656,-1.025390625, 
691,1705126856,0.456137747,0.289159268,1.005088329,-0.063966848,0.077805676,9.411775589,1.249475121,-1.423254967,0.298726022,0.014404297,0.211425781,-1.025390625, 
692,1705135189,0.456125915,0.289463848,1.005199909,-0.053998191,0.086755544,9.426449776,1.230251789,-1.432386398,0.307345212,0.016357422,0.209960938,-1.024414063, 
693,1705143522,0.456246674,0.2901164,1.002453804,-0.056443661,0.073469065,9.438304901,1.255187035,-1.391621232,0.279899567,0.013427734,0.209472656,-1.023925781, 
694,1705151855,0.456028312,0.290141046,1.002015829,-0.055809055,0.075812191,9.4290905,1.205136895,-1.467362642,0.242246613,0.013427734,0.211914063,-1.022705078, 
695,1705160188,0.45657739,0.290777028,1.000198126,-0.051832099,0.055781882,9.461338043,1.305211663,-1.394387603,0.221985757,0.012939453,0.210449219,-1.024902344, 
696,1705168521,0.456461549,0.290132284,0.999956906,-0.020159788,0.068555638,9.408744812,1.217380524,-1.546715498,0.267707169,0.013427734,0.209960938,-1.02734375, 
697,1705176854,0.455728889,0.290580362,0.996744454,-0.054501232,0.08144737,9.446558952,1.152294874,-1.415493846,0.2956779,0.012451172,0.210449219,-1.023193359, 
698,1705185187,0.455289751,0.291170359,0.996856749,-0.047430966,0.077745214,9.420289993,1.178177834,-1.398703694,0.307524472,0.011962891,0.213867188,-1.024169922, 
699,1705193520,0.455050379,0.291413963,0.992779851,-0.05517929,0.064922459,9.421696663,1.210118771,-1.440967202,0.324250549,0.013427734,0.209960938,-1.023193359, 
700,1705201853,0.454409122,0.292466015,0.992957115,-0.0441956,0.086926147,9.451390266,1.15484333,-1.341993809,0.313953668,0.014404297,0.210449219,-1.024414063, 
701,1705210186,0.454392314,0.29325974,0.989800692,-0.037133716,0.065464258,9.431049347,1.236655235,-1.374575019,0.313134015,0.013427734,0.209960938,-1.024902344, 
702,1705218519,0.455007941,0.293488532,0.989221632,-0.042976663,0.069327816,9.403946877,1.306530952,-1.443694949,0.226583526,0.016357422,0.212890625,-1.023681641, 
703,1705226852,0.454665631,0.293146461,0.985286832,-0.059941527,0.056218076,9.429281235,1.198297977,-1.510573983,0.290068418,0.014892578,0.212402344,-1.023681641, 
704,1705235185,0.45483613,0.29359296,0.985275924,-0.044243637,0.052918267,9.435279846,1.251191378,-1.415545225,0.294858307,0.013427734,0.209472656,-1.024414063, 
705,1705243518,0.454087377,0.293618083,0.980018079,-0.047655106,0.079735748,9.429211617,1.149259448,-1.465966582,0.307422012,0.014892578,0.212890625,-1.022216797, 
706,1705251851,0.454501659,0.293334067,0.980305552,-0.03851267,0.082827367,9.427886009,1.282171726,-1.504477739,0.329450339,0.011474609,0.210449219,-1.028320313, 
707,1705260184,0.454302043,0.293212473,0.977687061,-0.051791664,0.073469728,9.439155579,1.215126634,-1.484370708,0.267348617,0.014404297,0.213378906,-1.023681641, 
708,1705268517,0.454167396,0.294000179,0.978065789,-0.061967369,0.081948012,9.417797089,1.214076161,-1.374331713,0.339503855,0.015380859,0.2109375,-1.023681641, 
709,1705276850,0.454025894,0.294491291,0.976415575,-0.038812522,0.076523028,9.437793732,1.224014759,-1.410857916,0.26035589,0.013916016,0.212402344,-1.024169922, 
710,1705285183,0.453203231,0.295017898,0.976690054,-0.044376403,0.06772875,9.427209854,1.132033825,-1.406784892,0.328079909,0.013916016,0.212402344,-1.023193359, 
711,1705293516,0.452616215,0.294572979,0.97351265,-0.053860046,0.0653852,9.438820839,1.168047547,-1.522279501,0.283306241,0.014404297,0.211914063,-1.023681641, 
712,1705301849,0.453188717,0.295045316,0.97293514,-0.036757488,0.069329642,9.415612221,1.300408959,-1.414341211,0.225072265,0.012939453,0.212402344,-1.022216797, 
713,1705310182,0.453115344,0.295574963,0.970865607,-0.062635347,0.078259729,9.437753677,1.23118639,-1.404633284,0.308843613,0.014892578,0.211914063,-1.023681641, 
714,1705318515,0.453326762,0.2948125,0.970561266,-0.063864969,0.056114897,9.411377907,1.256301403,-1.561482072,0.259344101,0.013427734,0.215332031,-1.025878906, 
715,1705326848,0.453330159,0.294754058,0.968208015,-0.044395112,0.052712757,9.416789055,1.240177274,-1.478248835,0.268424392,0.013916016,0.210449219,-1.025390625, 
716,1705335181,0.453317255,0.295508564,0.968302369,-0.050099738,0.057479553,9.438183784,1.229854703,-1.378404498,0.307255566,0.011962891,0.211914063,-1.022705078, 
717,1705343514,0.453097582,0.295901716,0.965072453,-0.050835494,0.058517318,9.433076859,1.213179827,-1.422845125,0.227364749,0.013916016,0.208984375,-1.025878906, 
718,1705351847,0.453105628,0.29580918,0.964344203,-0.04167721,0.059830252,9.431966782,1.232249618,-1.480477095,0.208218113,0.013916016,0.2109375,-1.022216797, 
719,1705360180,0.462391645,0.289836198,0.962747216,-0.047184028,0.059834324,9.431523323,1.210848927,-1.410140395,0.322291106,0.013427734,0.210449219,-1.025878906, 
720,1705368513,0.462077141,0.289916515,0.9630391,-0.034629285,0.062567435,9.42782402,1.192611575,-1.458807349,0.330154687,0.013427734,0.213378906,-1.022216797, 
721,1705376846,0.461556971,0.28969276,0.963471293,-0.046462178,0.059669808,9.447432518,1.1763978,-1.497689843,0.235074624,0.015869141,0.209472656,-1.023193359, 
722,1705385179,0.461259395,0.29008311,0.963808835,-0.038535051,0.070440724,9.44718647,1.193687558,-1.420565605,0.33586669,0.015869141,0.2109375,-1.026367188, 
723,1705393512,0.460721463,0.289899737,0.967519164,-0.044402789,0.070024788,9.444955826,1.173298597,-1.490466595,0.320574939,0.014892578,0.21484375,-1.025146484, 
724,1705401845,0.46064344,0.289729238,0.967488647,-0.056606136,0.070667148,9.449205399,1.218827605,-1.488238096,0.290516645,0.013671875,0.208496094,-1.0234375, 
725,1705410178,0.461756587,0.290085912,0.962754428,-0.053715464,0.056365956,9.41186142,1.372615576,-1.425624251,0.327196211,0.013427734,0.211914063,-1.024414063, 
726,1705418511,0.461416483,0.289666653,0.962944865,-0.03273084,0.073824741,9.421771049,1.187552691,-1.518949628,0.318077594,0.013427734,0.212402344,-1.024902344, 
727,1705426844,0.461186647,0.290127248,0.960252583,-0.056544319,0.076151296,9.422101974,1.211617231,-1.413060427,0.330666959,0.013671875,0.20703125,-1.025390625, 
728,1705435177,0.461473852,0.290638238,0.960631132,-0.048843347,0.074106105,9.436600685,1.263537288,-1.406708121,0.339401424,0.017333984,0.211425781,-1.024658203, 
729,1705443510,0.460796148,0.290761828,0.954140723,-0.039176196,0.061772663,9.429728508,1.156418562,-1.4541713,0.243783459,0.014892578,0.212646484,-1.019287109, 
730,1705451843,0.460885108,0.290710598,0.954411924,-0.043631993,0.078630477,9.432495117,1.240151644,-1.473100185,0.327439606,0.014404297,0.209472656,-1.023925781, 
731,1705460176,0.460345,0.290381074,0.946478307,-0.056569118,0.067959808,9.434636116,1.173349738,-1.508601665,0.32349503,0.015869141,0.212402344,-1.024169922, 
732,1705468509,0.460086524,0.289886981,0.946369052,-0.045221459,0.067611381,9.435271263,1.197913647,-1.528119683,0.283306271,0.015869141,0.2109375,-1.024169922, 
733,1705476842,0.45965451,0.288934469,0.947268367,-0.048554789,0.085939117,9.407767296,1.185209036,-1.583984256,0.258306742,0.012451172,0.2109375,-1.023193359, 
734,1705485175,0.459622592,0.289546132,0.947368383,-0.034135096,0.074190177,9.418780327,1.226678491,-1.393568039,0.306768864,0.014892578,0.211914063,-1.022705078, 
735,1705493508,0.459090531,0.289501637,0.941136181,-0.051006362,0.072122619,9.429784775,1.172504425,-1.475277543,0.304899067,0.017333984,0.209960938,-1.023193359, 
