PacketCounter,SampleTimeFine,Euler_X,Euler_Y,Euler_Z,Acc_X,Acc_Y,Acc_Z,Gyr_X,Gyr_Y,Gyr_Z,Mag_X,Mag_Y,Mag_Z,
0,319538535,1.482743263,0.799415052,-82.97628784,0,0,0,0,0,0,-0.915039063,0.113769531,-1.564453125, 
1,319546868,1.486208797,0.780872941,-82.9751358,-0.100765944,0.207021698,9.618782997,0.41399011,-2.221369267,0.193912581,-0.9140625,0.108886719,-1.565917969, 
2,319555201,1.495054126,0.754437983,-82.97885895,-0.119133182,0.211700797,9.609639168,1.067870259,-3.182286739,-0.363158613,-0.9140625,0.111328125,-1.564941406, 
3,319563534,1.458289027,0.716438293,-83.04640961,-0.103784621,0.233827457,9.56385231,1.617167473,-2.692312002,-0.258447647,-0.913574219,0.114257813,-1.561035156, 
4,319571867,1.48199296,0.701371849,-83.04577637,-0.095486365,0.278756112,9.457566261,2.843730927,-1.805598736,0.121142529,-0.9140625,0.110351563,-1.563476563, 
5,319580200,1.47552073,0.674794614,-83.02481842,-0.148673654,0.299088001,9.294528008,3.34249115,-0.998929501,0.563064873,-0.913085938,0.11328125,-1.562011719, 
6,319588533,1.496254683,0.668741822,-83.01974487,-0.116433784,0.295513302,9.25776577,2.480341911,-0.711717129,0.628816605,-0.915527344,0.111328125,-1.5625, 
7,319596866,1.539218426,0.664429724,-83.00530243,-0.109848469,0.280830175,9.248548508,1.896823764,-0.591816902,0.673282981,-0.913574219,0.113769531,-1.561035156, 
8,319605199,1.547364831,0.656811357,-83.00095367,-0.096684977,0.269039869,9.299811363,0.972047329,-0.899776816,0.546313167,-0.915527344,0.114746094,-1.5625, 
9,319613532,1.585836291,0.647306085,-82.97550964,-0.111754559,0.265455455,9.356609344,0.322803378,-1.477813244,0.831066668,-0.916992188,0.110839844,-1.5625, 
10,319621865,1.586432695,0.637209892,-82.96891785,-0.100619018,0.212517798,9.415308952,0.062281009,-1.189166427,0.822716415,-0.916503906,0.110351563,-1.564453125, 
11,319630198,1.607580185,0.634050131,-82.96005249,-0.073209345,0.19632408,9.499554634,-0.004456877,-0.390770763,0.839775443,-0.9140625,0.11328125,-1.564941406, 
12,319638531,1.610978961,0.630302846,-82.95272064,-0.021379847,0.185265779,9.497666359,0.397238344,-0.423736274,0.890286863,-0.912109375,0.11328125,-1.563476563, 
13,319646864,1.614044547,0.618389547,-82.92903137,-0.044619434,0.173005819,9.484912872,1.108417511,-0.755389392,0.873688698,-0.910644531,0.112792969,-1.564453125, 
14,319655197,1.622130513,0.606441855,-82.92514801,-0.071186222,0.16470854,9.463004112,0.96492666,-1.419720173,0.505893946,-0.912597656,0.11328125,-1.563476563, 
15,319663530,1.610019326,0.571699262,-82.9092865,-0.087829776,0.173051059,9.46117115,1.174118042,-1.990635872,0.311405063,-0.915039063,0.110839844,-1.563964844, 
16,319671863,1.623778462,0.552868724,-82.90824127,-0.149428308,0.202227041,9.464913368,1.649159789,-2.255128384,0.189916745,-0.916503906,0.11328125,-1.560058594, 
17,319680196,1.610514522,0.523274243,-82.9052887,-0.208838388,0.228365093,9.391759872,1.883863091,-1.896298528,0.190659553,-0.912109375,0.113769531,-1.564453125, 
18,319688529,1.622131824,0.514961541,-82.90050507,-0.180521727,0.2497399,9.356799126,1.388534784,-0.980410397,0.602869451,-0.912597656,0.111816406,-1.565917969, 
19,319696862,1.607071638,0.515529275,-82.87834167,-0.224241629,0.253775716,9.369737625,1.14573741,-0.239928544,1.105138898,-0.913085938,0.112792969,-1.564453125, 
20,319705195,1.614817619,0.511961877,-82.87068176,-0.192819476,0.238783494,9.356855392,0.922394216,-0.402322769,0.930411458,-0.911621094,0.111328125,-1.564453125, 
21,319713528,1.601652026,0.518914521,-82.85532379,-0.157384008,0.221802503,9.387928009,0.503998518,-0.826391935,0.987697661,-0.913085938,0.111328125,-1.561523438, 
22,319721861,1.604925752,0.508514225,-82.84674072,-0.163556904,0.220686659,9.384293556,0.384047031,-1.219544888,1.064104915,-0.914550781,0.114257813,-1.566894531, 
23,319730194,1.591370225,0.512871921,-82.83724213,-0.139760122,0.223443449,9.446516991,0.127904668,-1.527427912,1.06031394,-0.915039063,0.111328125,-1.564941406, 
24,319738527,1.596552372,0.501396358,-82.82837677,-0.157915428,0.19506219,9.472364426,0.611834407,-1.347616076,1.099990487,-0.912597656,0.110839844,-1.565429688, 
25,319746860,1.587574244,0.505856395,-82.82476044,-0.126021743,0.176006392,9.54194355,0.52208209,-1.501070857,0.598899245,-0.91015625,0.112792969,-1.563476563, 
26,319755193,1.596115828,0.48849982,-82.8221283,-0.078602925,0.182222351,9.563691139,1.022456169,-2.072729349,0.372827977,-0.912109375,0.115722656,-1.563964844, 
27,319763526,1.595812917,0.487595856,-82.81689453,-0.079857357,0.200163692,9.523334503,1.694368839,-2.023165941,0.243373647,-0.911621094,0.11328125,-1.5625, 
28,319771859,1.611843228,0.468670845,-82.81702423,-0.092845164,0.192171007,9.492301941,1.924666405,-2.269830942,0.048295639,-0.911132813,0.110351563,-1.56640625, 
29,319780192,1.616889954,0.457887977,-82.81427002,-0.071802028,0.199955225,9.483008385,2.358085155,-2.718361855,-0.100817636,-0.913085938,0.11328125,-1.563964844, 
30,319788525,1.640524745,0.436766863,-82.81594849,-0.111976489,0.234854475,9.400620461,2.838569403,-2.5388062,-0.128865212,-0.9140625,0.111328125,-1.563964844, 
31,319796858,1.650365114,0.433169663,-82.81050873,-0.089937277,0.267054111,9.277591705,2.893166065,-1.536546707,0.115558609,-0.912109375,0.115234375,-1.562988281, 
32,319805191,1.670579314,0.426580071,-82.80677795,-0.138353705,0.32842958,9.184043884,2.423247337,-0.779056907,0.467088372,-0.912597656,0.113769531,-1.565917969, 
33,319813524,1.667401671,0.416909158,-82.79225159,-0.200911209,0.332497686,9.11296463,1.023147821,-2.145550966,0.557942092,-0.911621094,0.111328125,-1.564453125, 
34,319821857,1.664727449,0.386386037,-82.79115295,-0.156458944,0.28245312,9.230291367,-0.321125597,-3.657712221,0.237969026,-0.912597656,0.114746094,-1.565429688, 
35,319830190,1.646720409,0.365432113,-82.7866745,-0.118725374,0.229088649,9.388001442,-1.30327785,-3.710478067,0.199009791,-0.913085938,0.114746094,-1.564453125, 
36,319838523,1.639047742,0.336520106,-82.78536224,-0.149595901,0.185143933,9.580924988,-0.922368705,-3.46496582,0.255745351,-0.912597656,0.113769531,-1.563476563, 
37,319846856,1.633303761,0.321584851,-82.77476501,-0.086745135,0.151980355,9.683299065,0.051907249,-3.014155149,0.210997239,-0.9140625,0.113769531,-1.561523438, 
38,319855189,1.643762469,0.299375355,-82.77172852,-0.091729403,0.15146628,9.701713562,1.253445387,-2.654659033,0.43911761,-0.916503906,0.112304688,-1.563964844, 
39,319863522,1.658399701,0.295476794,-82.76387787,-0.074782938,0.168523103,9.657522202,2.694143534,-1.652194977,0.393319368,-0.913574219,0.110839844,-1.561523438, 
40,319871855,1.689110637,0.289648205,-82.76113129,-0.072540894,0.207034603,9.514364243,3.685644865,-0.690047443,0.34606111,-0.914550781,0.111816406,-1.564453125, 
41,319880188,1.715279102,0.298438221,-82.75430298,-0.086357921,0.236264735,9.354879379,4.247621536,-0.010553065,0.37864244,-0.917480469,0.111328125,-1.5625, 
42,319888521,1.743460894,0.297288984,-82.75178528,-0.078060396,0.266260356,9.240921974,3.381475925,-0.130658209,0.304463595,-0.915039063,0.110839844,-1.562988281, 
43,319896854,1.751030564,0.293712407,-82.74987793,-0.135513395,0.268372327,9.257880211,1.977047563,-1.40906477,-0.183500379,-0.913085938,0.111816406,-1.564453125, 
44,319905187,1.7600981,0.261900872,-82.75484467,-0.111700676,0.281400144,9.252077103,1.091230392,-3.835142374,-0.478345782,-0.915527344,0.108886719,-1.564941406, 
45,319913520,1.760764241,0.230674624,-82.75331879,-0.131711349,0.251887381,9.27278614,1.009239316,-4.710790634,-0.193618,-0.9140625,0.11328125,-1.563964844, 
46,319921853,1.763858318,0.20180814,-82.75305176,-0.139628723,0.2302237,9.39771843,0.37375012,-3.462302208,0.13845776,-0.912109375,0.111328125,-1.564453125, 
47,319930186,1.758462787,0.18783018,-82.74394989,-0.085394181,0.243901268,9.46667099,0.17493242,-2.642722845,0.403001606,-0.913085938,0.110351563,-1.564941406, 
48,319938519,1.764807582,0.161105275,-82.74136353,-0.051758349,0.213316366,9.462968826,0.762548506,-3.197808981,0.405460507,-0.913574219,0.11328125,-1.561035156, 
49,319946852,1.768330097,0.135604829,-82.73396301,-0.048520748,0.214862511,9.486790657,1.226678491,-4.033063889,0.401669621,-0.913574219,0.112792969,-1.5625, 
50,319955185,1.778350353,0.113242537,-82.73480988,-0.101578206,0.166033939,9.515483856,1.203395367,-2.68747139,-0.021029288,-0.916015625,0.112304688,-1.562011719, 
51,319963518,1.782663465,0.108600445,-82.72583771,-0.024590444,0.190371096,9.585702896,1.345323443,-1.437009692,0.289965957,-0.916503906,0.111328125,-1.563476563, 
52,319971851,1.807110548,0.100939684,-82.72200012,-0.049321964,0.183924735,9.556779861,2.936095476,-0.906052351,0.486580819,-0.915527344,0.114257813,-1.562011719, 
53,319980184,1.825306416,0.098635405,-82.71908569,-0.070029043,0.160489887,9.559136391,3.092829227,-1.126667619,-0.280527085,-0.91796875,0.110839844,-1.5625, 
54,319988517,1.846698165,0.077178381,-82.72718048,-0.065519512,0.182777494,9.538720131,2.569658041,-2.606171131,-0.893552601,-0.915039063,0.110351563,-1.562011719, 
55,319996850,1.862450242,0.04670516,-82.73329926,-0.108864866,0.22450839,9.524279594,2.876670837,-4.497603416,-1.312985778,-0.91796875,0.110351563,-1.565917969, 
56,320005183,1.887699366,0.004054891,-82.74625397,-0.133096397,0.241592124,9.513577461,3.032405376,-5.16882515,-1.392185092,-0.917480469,0.110351563,-1.563964844, 
57,320013516,1.907067776,-0.020685976,-82.74887085,-0.115013242,0.294593096,9.448663712,3.328121662,-3.808810949,-1.148567796,-0.915527344,0.107421875,-1.560058594, 
58,320021849,1.936903954,-0.040444862,-82.75319672,-0.080291502,0.297162175,9.312573433,3.583342314,-2.389936447,-0.441435784,-0.916503906,0.112304688,-1.559570313, 
59,320030182,1.956708312,-0.048520066,-82.74721527,-0.057852503,0.301655859,9.255345345,3.316338778,-1.827037811,0.091481239,-0.916015625,0.110351563,-1.562011719, 
60,320038515,1.97802043,-0.071166217,-82.74549866,-0.062657103,0.299455553,9.259113312,2.561000824,-2.711548328,0.29552424,-0.920898438,0.109375,-1.563964844, 
61,320046848,1.990963459,-0.090393223,-82.73469543,-0.089819856,0.302929819,9.230259895,2.4042418,-3.15265131,0.247446343,-0.91796875,0.108398438,-1.561523438, 
62,320055181,2.005543709,-0.110419169,-82.72926331,-0.098222665,0.337357312,9.251942635,1.753819585,-2.382662058,0.731273651,-0.920410156,0.109375,-1.562011719, 
63,320063514,2.009182453,-0.120386995,-82.71200562,-0.119287297,0.326519936,9.272657394,1.215279937,-2.011741877,1.1333915,-0.918457031,0.109863281,-1.560546875, 
64,320071847,2.01539731,-0.139557794,-82.70279694,-0.106517538,0.273702234,9.324555397,0.752968848,-2.264784813,1.1787287,-0.917480469,0.106933594,-1.563476563, 
65,320080180,2.013102293,-0.152617887,-82.68428802,-0.087502435,0.23161079,9.396338463,0.411018819,-2.423798084,1.102705598,-0.917480469,0.107910156,-1.561035156, 
66,320088513,2.011869669,-0.178760439,-82.67816162,-0.059716236,0.170829803,9.484751701,-0.141826019,-3.113384962,0.83923769,-0.919433594,0.108886719,-1.562011719, 
67,320096846,2.004556417,-0.214948818,-82.66908264,-0.074020177,0.15942733,9.589747429,-0.187982857,-5.251430511,0.358817011,-0.920410156,0.109375,-1.561035156, 
68,320105179,2.005099058,-0.27362588,-82.67625427,-0.079083204,0.140045524,9.64350605,0.066174366,-7.07237196,-0.620402336,-0.919921875,0.108886719,-1.560058594, 
69,320113512,1.999773979,-0.339064866,-82.67721558,-0.04066487,0.141779125,9.633806229,0.128673121,-8.800104141,-0.785281241,-0.922851563,0.108398438,-1.561523438, 
70,320121845,2.003862143,-0.431056082,-82.69036102,-0.063408799,0.162465885,9.634407043,0.485812426,-11.09255219,-1.198464632,-0.919433594,0.109375,-1.5625, 
71,320130178,2.003458977,-0.544467866,-82.70897675,-0.040619448,0.146487951,9.61081028,0.793004155,-14.62854958,-2.600409269,-0.922851563,0.110839844,-1.558105469, 
72,320138511,2.015924692,-0.678592563,-82.73506927,0.08732754,0.126756549,9.551490784,1.466735482,-16.20018768,-2.572668791,-0.928222656,0.108886719,-1.556640625, 
73,320146844,2.019694328,-0.782475591,-82.74549866,-0.049681243,0.152943254,9.674581528,1.356722355,-13.47772598,-2.018069267,-0.924804688,0.111328125,-1.557617188, 
74,320155177,2.039208412,-0.886087418,-82.76691437,-0.050953686,0.169514492,9.629218102,2.308624268,-12.52398014,-2.1366117,-0.926757813,0.111328125,-1.555664063, 
75,320163510,2.057556152,-0.968020499,-82.76803589,0.005125274,0.237081707,9.610390663,3.178227186,-10.8007288,-1.180457592,-0.928222656,0.106933594,-1.554199219, 
76,320171843,2.097249269,-1.039435506,-82.77268982,0.02763813,0.248078644,9.501717567,4.761468887,-8.591014862,-0.256116718,-0.930175781,0.104980469,-1.553222656, 
77,320180176,2.132257938,-1.103524685,-82.76451874,0.001869184,0.305786133,9.366342545,5.213253021,-8.653488159,0.169374153,-0.930175781,0.105957031,-1.551757813, 
78,320188509,2.163380384,-1.197695971,-82.76870728,-0.058892861,0.415811181,9.233217239,3.730829,-11.31913757,-0.088369124,-0.930664063,0.106933594,-1.554199219, 
79,320196842,2.173654556,-1.319481134,-82.76615906,0.006289781,0.491887182,9.074192047,2.189748526,-15.62783813,-0.332959533,-0.937011719,0.103515625,-1.552246094, 
80,320205175,2.183491468,-1.4448632,-82.76600647,-0.019361055,0.515959442,9.161660194,1.187130332,-15.04170609,0.58025223,-0.9375,0.104492188,-1.55078125, 
81,320213508,2.183371544,-1.516100645,-82.74729919,-0.018025219,0.41940096,9.406086922,0.841338038,-9.547732353,1.53617537,-0.936035156,0.100585938,-1.55078125, 
82,320221841,2.205859423,-1.542019248,-82.72193146,0.15672037,0.417478323,9.472099304,2.787968397,-2.999861956,3.146977663,-0.938476563,0.106445313,-1.551269531, 
83,320230174,2.235866785,-1.532591105,-82.67980194,0.15717572,0.430896342,9.435077667,4.401588917,0.171269596,4.172853947,-0.938476563,0.101074219,-1.552246094, 
84,320238507,2.268126249,-1.540208459,-82.65018463,0.162046924,0.419203609,9.407479286,3.975367785,-0.781925857,3.5718925,-0.938476563,0.102050781,-1.553710938, 
85,320246840,2.293429375,-1.566810489,-82.61522675,0.192324281,0.40114522,9.428473473,3.723886728,-4.152733326,3.436572075,-0.937988281,0.104980469,-1.551269531, 
86,320255173,2.326626062,-1.614783883,-82.59278107,0.057581801,0.423938304,9.459826469,4.068296432,-5.652934074,2.908432722,-0.939453125,0.102050781,-1.551269531, 
87,320263506,2.351756573,-1.665686846,-82.55947876,-0.001555971,0.412071943,9.41354847,3.625938416,-7.048345566,2.98770833,-0.940429688,0.102539063,-1.548828125, 
88,320271839,2.376846075,-1.727808714,-82.53528595,-0.049288467,0.424655944,9.434226036,3.107019901,-7.340118408,3.193288565,-0.941894531,0.099121094,-1.551757813, 
89,320280172,2.400994539,-1.776727796,-82.49436951,-0.064551547,0.41580373,9.4851017,3.488082647,-6.813386917,4.052313328,-0.940429688,0.102539063,-1.548828125, 
90,320288505,2.434160233,-1.832958341,-82.45591736,-0.058164772,0.384953409,9.423575401,4.135482788,-6.558269024,4.876528263,-0.942382813,0.102050781,-1.545898438, 
91,320296838,2.473371267,-1.88279593,-82.40136719,-0.009129819,0.380781472,9.373929024,5.305925369,-6.947784901,5.698284149,-0.944824219,0.103027344,-1.549316406, 
92,320305171,2.501316547,-1.934992194,-82.35257721,0.010582197,0.35829398,9.333499908,3.558342695,-6.016553879,6.100274086,-0.940917969,0.100585938,-1.548339844, 
93,320313504,2.518182516,-1.988562584,-82.28964233,0.015499233,0.370329171,9.278341293,2.644708395,-7.428974628,6.700723648,-0.944335938,0.1015625,-1.549316406, 
94,320321837,2.538091183,-2.047702551,-82.23420715,0.13171646,0.301835507,9.221132278,2.63587141,-6.812798023,6.937551975,-0.942871094,0.104003906,-1.550292969, 
95,320330170,2.541576862,-2.078797102,-82.16345215,0.090257816,0.259039283,9.296312332,1.077962399,-4.740888119,7.641713142,-0.94140625,0.103515625,-1.548828125, 
96,320338503,2.53652215,-2.117177248,-82.10436249,0.058913112,0.232105777,9.21645546,-0.335264683,-4.303242207,7.26451683,-0.946289063,0.10546875,-1.549316406, 
97,320346836,2.519435167,-2.162997246,-82.0435257,0.15155144,0.270360023,9.223534584,-1.397359133,-6.577403545,6.430826187,-0.939453125,0.103515625,-1.549804688, 
98,320355169,2.496301889,-2.233505011,-81.99440002,0.208862036,0.240342498,9.18657589,-2.538780928,-8.212591171,6.236029625,-0.946289063,0.104980469,-1.549316406, 
99,320363502,2.456611395,-2.294706583,-81.93899536,0.177518919,0.246784657,9.238186836,-4.078170776,-8.467555046,5.976633549,-0.947265625,0.107421875,-1.548339844, 
100,320371835,2.409388781,-2.372326374,-81.89461517,0.151978984,0.261895329,9.278381348,-5.437749386,-9.099099159,5.691215038,-0.946777344,0.10546875,-1.547363281, 
101,320380168,2.355632067,-2.438535929,-81.84438324,0.24732092,0.243969202,9.286413193,-5.738870621,-9.086984634,5.43281889,-0.945800781,0.110351563,-1.543945313, 
102,320388501,2.301554441,-2.506890774,-81.79670715,0.233522102,0.233165428,9.31914711,-6.229894638,-7.984086514,6.020895958,-0.946777344,0.112304688,-1.543457031, 
103,320396834,2.235529661,-2.551775455,-81.74557495,0.244324505,0.186641395,9.373063087,-7.171371937,-6.530759811,5.453770638,-0.947265625,0.110839844,-1.544433594, 
104,320405167,2.166463137,-2.604895592,-81.70326996,0.261312008,0.138002351,9.571466446,-8.046021461,-6.196749687,5.291069508,-0.946289063,0.112792969,-1.543945313, 
105,320413500,2.101947308,-2.654271841,-81.65895844,0.272090226,0.162953004,9.524723053,-6.970685005,-7.086307049,4.966767311,-0.948730469,0.1171875,-1.546386719, 
106,320421833,2.045197487,-2.739467859,-81.62083435,0.341044515,0.16323255,9.522405624,-6.580168724,-10.07643604,4.909852028,-0.948242188,0.116699219,-1.544921875, 
107,320430166,1.992275715,-2.829306364,-81.5765686,0.379162997,0.150237441,9.507660866,-5.527041435,-11.94215393,4.983161449,-0.94921875,0.118164063,-1.54296875, 
108,320438499,1.958113909,-2.925915718,-81.53814697,0.467687786,0.127591059,9.416049957,-3.852048635,-11.45333004,4.977576733,-0.950195313,0.12109375,-1.543457031, 
109,320446832,1.920846462,-2.994542599,-81.49380493,0.541529477,0.121611401,9.348744392,-3.591013432,-9.360799789,5.082722664,-0.951171875,0.12109375,-1.54296875, 
110,320455165,1.888816953,-3.07178545,-81.45600128,0.595280945,0.107852921,9.334207535,-3.588478088,-9.141849518,4.808701515,-0.955566406,0.122558594,-1.541992188, 
111,320463498,1.849802613,-3.146770954,-81.42398071,0.63347286,0.064469196,9.28619957,-3.835348129,-10.10002708,3.602860451,-0.950195313,0.124511719,-1.541503906, 
112,320471831,1.811193943,-3.238319874,-81.40538788,0.600551784,0.119906984,9.273292542,-4.491276741,-10.93876362,2.550755024,-0.954101563,0.125976563,-1.538574219, 
113,320480164,1.763035417,-3.318320751,-81.3874054,0.544595361,0.161572844,9.200095177,-4.987194538,-10.66118336,1.80322969,-0.954589844,0.125976563,-1.540527344, 
114,320488497,1.714419007,-3.395422459,-81.37484741,0.563707232,0.202849239,9.141444206,-5.728034973,-9.233752251,1.758609533,-0.955566406,0.123535156,-1.537109375, 
115,320496830,1.653226614,-3.461046219,-81.35317993,0.564756513,0.244982615,9.054859161,-6.497820377,-8.850589752,2.296969652,-0.954101563,0.126953125,-1.534179688, 
116,320505163,1.586629152,-3.560124874,-81.33698273,0.584650397,0.240654022,9.059200287,-7.854298592,-11.86192703,2.247483015,-0.956542969,0.128417969,-1.540039063, 
117,320513496,1.506142378,-3.679349184,-81.32362366,0.689122558,0.197445661,9.003612518,-8.879150391,-15.24981976,1.608330846,-0.958984375,0.130859375,-1.535644531, 
118,320521829,1.421066523,-3.798690081,-81.31510925,0.747180045,0.136435866,9.017807961,-10.12349033,-14.3256321,1.356517315,-0.963378906,0.132324219,-1.533691406, 
119,320530162,1.301287293,-3.899875402,-81.30757141,0.76366663,0.070986494,9.204421043,-13.66207504,-13.03711224,0.812086761,-0.963867188,0.135253906,-1.533691406, 
120,320538495,1.18476212,-4.030471802,-81.31217957,0.852227867,-0.045015514,9.448933601,-13.99995041,-15.71697617,-0.243130401,-0.963378906,0.13671875,-1.533691406, 
121,320546828,1.072072148,-4.157906055,-81.33062744,0.872600675,-0.185108379,9.684389114,-13.01918411,-16.1610527,-2.201493263,-0.963378906,0.136230469,-1.531738281, 
122,320555161,0.977126241,-4.294269562,-81.3640213,0.891849458,-0.201921597,9.75770092,-11.6680584,-16.46939659,-3.735761404,-0.966308594,0.139648438,-1.529785156, 
123,320563494,0.891029119,-4.438117504,-81.40498352,0.784034073,-0.167749166,9.7257061,-9.964683533,-18.07038689,-4.681386948,-0.970214844,0.143554688,-1.529296875, 
124,320571827,0.814966083,-4.5973382,-81.4526825,0.566201925,-0.109457538,9.711050034,-9.554727554,-19.2286377,-5.451889515,-0.969726563,0.142089844,-1.526855469, 
125,320580160,1.190297842,-4.600133419,-81.52752686,0.801419735,-0.88158524,11.61120987,45.10983276,-1.162760258,-9.283922195,-0.973144531,0.138671875,-1.527832031, 
126,320588493,1.786208987,-4.380144119,-81.57820892,1.179696918,-0.163734287,10.97328186,71.05983734,26.1931572,-6.781197071,-0.969726563,0.132324219,-1.532226563, 
127,320596826,2.23185277,-4.134281158,-81.57269287,0.114044569,-0.122459069,9.491477966,54.44570541,28.80433464,-1.066631436,-0.968261719,0.122558594,-1.533691406, 
128,320605159,2.636324167,-3.926991701,-81.60455322,0.824993134,0.425599366,9.388360023,48.29521179,24.65136719,-4.899656773,-0.9609375,0.118164063,-1.534667969, 
129,320613492,3.025984526,-3.781190634,-81.62567139,0.514285564,0.398158908,8.792027473,47.55196762,16.59648514,-4.696918011,-0.962402344,0.108398438,-1.537109375, 
130,320621825,3.419879913,-3.687302113,-81.67637634,0.039275419,0.625141501,8.883764267,46.901371,10.86517048,-6.729257107,-0.956054688,0.102050781,-1.542480469, 
131,320630158,3.827700377,-3.612418413,-81.71020508,0.179664433,0.820769906,8.808550835,49.58690262,7.963394642,-6.207726002,-0.958007813,0.09765625,-1.540039063, 
132,320638491,4.296654224,-3.535993576,-81.74542236,0.209058836,0.794107497,8.831475258,56.04338074,8.805161476,-4.894971371,-0.958984375,0.085449219,-1.545898438, 
133,320646824,4.779355049,-3.447749615,-81.76537323,0.300047845,0.666169226,9.200713158,58.58221054,9.476311684,-5.079037189,-0.954101563,0.081054688,-1.544433594, 
134,320655157,5.253723145,-3.376478672,-81.79801178,0.445568293,0.619532764,9.572384834,56.72590256,8.134272575,-4.682551861,-0.955078125,0.075683594,-1.545898438, 
135,320663490,5.690786362,-3.316310883,-81.81144714,0.426139951,0.685768306,9.664949417,53.11098099,6.06340456,-4.159941673,-0.950683594,0.06640625,-1.544921875, 
136,320671823,6.050395012,-3.2772367,-81.83294678,0.427655131,0.740927994,9.664272308,43.03974533,4.354683399,-3.084227562,-0.952148438,0.059570313,-1.548339844, 
137,320680156,6.28985405,-3.267011166,-81.83294678,0.415997505,0.793329477,9.553919792,29.52429962,0.232807964,-1.908262014,-0.948730469,0.055175781,-1.549316406, 
138,320688489,6.431908131,-3.293686867,-81.84864807,0.372962534,0.813316703,9.375008583,16.97402,-3.436752796,-1.559920192,-0.953125,0.051757813,-1.545898438, 
139,320696822,6.487740993,-3.301695824,-81.84840393,0.384441108,0.81266731,9.197293282,7.522030354,-1.941444159,-1.557614684,-0.949707031,0.050292969,-1.547363281, 
140,320705155,6.491744518,-3.261825323,-81.8598938,0.429436147,0.772998869,9.099740028,0.437491119,4.549395561,-1.956709862,-0.948242188,0.045410156,-1.548828125, 
141,320713488,6.435619354,-3.132776976,-81.85076141,0.455314845,0.689435244,9.151486397,-5.830402851,14.51297569,-2.347378492,-0.947753906,0.052246094,-1.55078125, 
142,320721821,6.344090939,-2.909046888,-81.84141541,0.597821176,0.722024441,9.286148071,-10.88631439,26.75475693,-1.928599715,-0.946777344,0.053222656,-1.551757813, 
143,320730154,6.236434937,-2.634757757,-81.80506134,0.544502616,0.793116271,9.363780975,-11.81383514,32.21417618,-0.953285992,-0.944335938,0.055175781,-1.551757813, 
144,320738487,6.166018963,-2.382025242,-81.79289246,0.501635194,0.844937384,9.200959206,-8.347006798,30.25742722,-1.882635117,-0.937011719,0.054199219,-1.556640625, 
145,320746820,6.127389431,-2.13633585,-81.77398682,0.361164212,0.935142875,9.175197601,-3.614362717,28.60686684,-2.777212381,-0.935546875,0.0546875,-1.55859375, 
146,320755153,6.131558895,-1.880762815,-81.7697525,0.109516375,0.983760118,9.274630547,0.559543431,30.495821,-2.829107285,-0.932617188,0.055664063,-1.561523438, 
147,320763486,6.161427975,-1.597305775,-81.74312592,-0.087518811,0.975865901,9.287466049,4.617277145,33.2417984,-2.400478601,-0.925292969,0.058105469,-1.560546875, 
148,320771819,6.239397526,-1.270277381,-81.73320007,-0.109562881,0.975536048,9.283654213,9.429869652,39.08714676,-3.120317698,-0.921386719,0.053710938,-1.565429688, 
149,320780152,6.339573383,-0.833693922,-81.70523834,0.032702766,0.921497166,9.183655739,13.01231956,51.47493362,-4.353085995,-0.916015625,0.053222656,-1.565917969, 
150,320788485,6.44837141,-0.329050809,-81.69603729,-0.066364788,0.87304765,9.277304649,13.11415005,60.24767685,-5.714543343,-0.90625,0.053222656,-1.570800781, 
151,320796818,6.533139706,0.180355072,-81.70167542,-0.260400295,0.845172286,9.371970177,11.11484814,59.64553452,-9.633252144,-0.893554688,0.052734375,-1.575683594, 
152,320805151,6.599740028,0.620004654,-81.74755096,-0.49287352,1.138020158,9.501163483,8.07946682,51.72333527,-11.57491016,-0.891601563,0.049316406,-1.579101563, 
153,320813484,6.629416466,1.095434666,-81.78206635,-0.502898335,0.757104099,9.078077316,4.613598347,55.15247345,-12.75668144,-0.885253906,0.049316406,-1.583496094, 
154,320821817,6.635757446,1.65373683,-81.8276825,-0.239567518,0.846566021,9.27829361,0.943375945,65.85543823,-13.25294685,-0.875488281,0.045898438,-1.585449219, 
155,320830150,6.601183891,2.281942606,-81.86096191,-0.597174287,0.834501922,9.277083397,-2.982062101,73.31900024,-14.75270462,-0.865234375,0.047851563,-1.587890625, 
156,320838483,6.577880383,2.975245476,-81.91929626,-0.766750038,0.812289238,9.222450256,-2.422647715,81.7831955,-16.57728958,-0.853027344,0.048339844,-1.594238281, 
157,320846816,6.624286175,3.798190117,-82.02324677,-1.101268768,0.607197702,9.309080124,7.411516666,95.56038666,-25.83441925,-0.841796875,0.046386719,-1.599121094, 
158,320855149,6.645339012,4.614598274,-82.15192413,-0.770881772,0.695794344,9.869350433,3.715018511,95.47168732,-26.70608139,-0.83203125,0.045898438,-1.602539063, 
159,320863482,6.632111549,5.464912415,-82.25793457,-1.208966255,0.720659614,9.696975708,0.758598149,98.70346832,-26.62146568,-0.813964844,0.044921875,-1.611816406, 
160,320871815,6.583779812,6.40846777,-82.37618256,-1.235055804,0.676116288,9.528966904,-4.274334431,110.7869797,-27.1429081,-0.799804688,0.043945313,-1.616210938, 
161,320880148,6.469758987,7.436850071,-82.46079254,-1.549979448,0.694033623,9.424521446,-11.09020424,120.2685852,-26.29283905,-0.782714844,0.04296875,-1.618652344, 
162,320888481,6.335504055,8.537326813,-82.57801056,-1.66392529,0.733534276,9.269087791,-14.0974884,129.6144562,-28.66801453,-0.766113281,0.043457031,-1.62109375, 
163,320896814,6.167350769,9.744105339,-82.66959381,-1.671639681,0.712514102,9.259895325,-16.89903831,141.5450439,-28.9247818,-0.746582031,0.045898438,-1.62890625, 
164,320905147,5.977683544,11.06884193,-82.75816345,-1.87120986,0.626164496,9.277330399,-20.77859879,156.9029541,-27.31672859,-0.724121094,0.048828125,-1.632324219, 
165,320913480,5.76104641,12.53017807,-82.81611633,-2.272212982,0.524485052,9.251446724,-22.88834,172.5137482,-27.07515526,-0.701660156,0.05078125,-1.639648438, 
166,320921813,5.534486771,14.08542633,-82.88633728,-2.58005476,0.550802827,9.220086098,-25.18179703,184.847168,-26.63957405,-0.678222656,0.0546875,-1.645996094, 
167,320930146,5.222559452,15.60067177,-82.94980621,-2.848950624,0.866163135,8.993149757,-33.64027023,179.1235657,-26.60539246,-0.650390625,0.057128906,-1.649414063, 
168,320938479,4.901948929,16.94603729,-83.08892059,-2.673401833,0.839001358,8.721017838,-33.72759247,159.3273773,-30.32719421,-0.622558594,0.063476563,-1.65234375, 
169,320946812,4.605263233,18.15057182,-83.2722702,-2.777853727,0.875298142,8.613251686,-27.7972393,141.27948,-32.58998489,-0.600585938,0.067382813,-1.65625, 
170,320955145,4.383892536,19.24345016,-83.47042084,-3.102071047,0.832220018,8.602869034,-18.87063026,128.9005737,-32.85707092,-0.583496094,0.069335938,-1.653808594, 
171,320963478,4.232328892,20.27989388,-83.66564178,-3.345443964,0.785028636,8.57383728,-9.150952339,121.3535843,-31.01894951,-0.56640625,0.0703125,-1.659667969, 
172,320971811,4.166396141,21.24127197,-83.83370209,-3.618865967,0.761239648,8.732973099,-0.690017343,113.592865,-27.3801918,-0.547851563,0.07421875,-1.658691406, 
173,320980144,4.15707159,22.0958252,-83.98009491,-3.778433323,0.699813306,8.736868858,6.423801899,100.0727615,-23.404953,-0.533203125,0.070800781,-1.66015625, 
174,320988477,4.204778194,22.8697052,-84.10899353,-3.963871241,0.542982161,8.714995384,11.71724796,91.49255371,-21.15026093,-0.520019531,0.068847656,-1.66015625, 
175,320996810,4.236314774,23.65589333,-84.21852875,-4.122429371,0.440043598,8.577134132,9.988145828,92.15776825,-18.65979767,-0.506347656,0.071777344,-1.657226563, 
176,321005143,4.25333643,24.47238159,-84.28764343,-4.329863071,0.414809287,8.334414482,5.503418922,97.0632782,-14.92952347,-0.491699219,0.070800781,-1.659179688, 
177,321013476,4.249335289,25.35877609,-84.34286499,-4.59186697,0.348606259,8.028822899,3.313310623,104.5551529,-13.51992798,-0.479492188,0.070800781,-1.66015625, 
178,321021809,4.248697758,26.35785675,-84.38150024,-4.722798824,0.299211264,8.03203392,2.027853489,119.1617737,-13.16902161,-0.460449219,0.068847656,-1.657226563, 
179,321030142,4.240297318,27.5108757,-84.37828827,-4.778259754,0.128707603,8.058418274,-0.180442467,136.8441315,-9.497774124,-0.441894531,0.068847656,-1.66015625, 
180,321038475,4.278343678,28.82448196,-84.31999969,-4.994307041,0.020511825,8.244216919,1.347824931,157.565155,-5.681912422,-0.418457031,0.073242188,-1.658203125, 
181,321046808,4.359678268,30.34506226,-84.18103027,-5.026217461,-0.034466576,8.421145439,2.544489861,181.791275,1.180799484,-0.394042969,0.070800781,-1.655273438, 
182,321055141,4.525464535,32.02719879,-83.92611694,-5.376304626,0.249347508,8.231188774,4.1398983,203.1846161,10.33321095,-0.365722656,0.070800781,-1.653808594, 
183,321063474,4.71735239,33.72912216,-83.61845398,-5.619329929,0.251595378,7.785987377,4.033545971,204.7761688,15.00880814,-0.334472656,0.070800781,-1.648925781, 
184,321071807,4.971087456,35.42654037,-83.26803589,-5.684045792,0.304446816,7.636632919,6.672091961,205.7909851,17.17685699,-0.299804688,0.072265625,-1.644042969, 
185,321080140,5.2678442,37.15320587,-82.85666656,-5.829447269,0.437534779,7.512419701,7.4279809,208.5867462,21.77555656,-0.274902344,0.067382813,-1.637207031, 
186,321088473,5.628141403,38.81893158,-82.38531494,-6.114695072,0.654547811,7.22535944,8.512462616,203.1162262,25.28020859,-0.247070313,0.068847656,-1.6328125, 
187,321096806,5.842575073,40.12528229,-82.04858398,-6.743007183,1.489707947,7.105469704,1.046697736,157.7325592,16.06980515,-0.215332031,0.063964844,-1.623535156, 
188,321105139,5.743632793,40.63230515,-82.06677246,-6.427465916,1.377182007,6.689832687,-10.36082649,60.2557869,-7.919601917,-0.203125,0.066894531,-1.620605469, 
189,321113472,5.519290447,40.5534668,-82.32588196,-6.005860806,1.137784481,6.834609032,-5.766318798,-13.15915585,-21.91292763,-0.202148438,0.069824219,-1.62109375, 
190,321121805,5.247304916,40.15665817,-82.65314484,-6.46466589,0.9680264,6.636771202,-7.109314919,-50.33307266,-25.45197678,-0.205566406,0.067382813,-1.623046875, 
191,321130138,4.960958481,39.69712448,-82.95206451,-6.693014145,0.501841903,6.847008705,-10.49112988,-58.82011414,-21.92618561,-0.21484375,0.076171875,-1.623046875, 
192,321138471,4.724970818,39.2612915,-83.15340424,-6.680927277,0.430054545,7.258364677,-12.85503864,-53.81052399,-14.28926086,-0.221191406,0.075195313,-1.624511719, 
193,321146804,4.532611847,38.87372589,-83.28229523,-6.591167927,0.278036922,7.106600285,-12.49702263,-48.85697556,-7.688476086,-0.228515625,0.080566406,-1.626464844, 
194,321155137,4.42592907,38.63756561,-83.37423706,-6.449869156,0.039375745,7.092541695,-5.788219452,-29.05059433,-6.487948895,-0.237792969,0.079589844,-1.628417969, 
195,321163470,4.372097015,38.63683701,-83.39818573,-6.340424538,0.022919079,7.447603226,-3.803188562,-1.856558323,-1.701617599,-0.240722656,0.080078125,-1.629882813, 
196,321171803,4.362104893,38.78876495,-83.34246826,-6.648940563,-0.038159303,7.056941986,-5.272987366,18.44937706,3.691064119,-0.233398438,0.08203125,-1.627441406, 
197,321180136,4.39358902,39.14876556,-83.29587555,-6.771938801,-0.059484646,6.893770218,1.175874352,41.76696777,1.606168628,-0.231445313,0.081542969,-1.626953125, 
198,321188469,4.513691425,39.78299713,-83.18968201,-6.56709671,-0.0278141,6.944395065,6.423186779,76.51311493,3.776428699,-0.221679688,0.082519531,-1.625, 
199,321196802,4.752067089,40.72353745,-82.97640228,-6.610866547,0.019366443,7.033690453,13.01968288,112.3332367,10.99108887,-0.210449219,0.083007813,-1.619628906, 
200,321205135,5.177976131,41.86136627,-82.61053467,-6.377779484,0.020968754,6.994791031,22.25096703,138.7489319,20.92691994,-0.191894531,0.078613281,-1.614746094, 
201,321213468,5.75169611,43.16340256,-82.09968567,-6.667873859,0.24818489,6.81831646,28.38267708,158.0388641,30.82527924,-0.166015625,0.071777344,-1.604980469, 
202,321221801,6.39639473,44.4648056,-81.50032806,-6.823561668,0.516698062,6.472322464,27.6848793,160.6452179,34.96450043,-0.142089844,0.068847656,-1.602050781, 
203,321230134,6.990315437,45.64498138,-80.93291473,-7.059428692,0.874896407,6.453625679,24.02652359,144.4555511,32.06980896,-0.120605469,0.064941406,-1.594238281, 
204,321238467,7.22169733,46.29000854,-80.65904236,-7.430402756,1.460305333,6.222409725,4.258621216,79.48922729,12.97265911,-0.107421875,0.059082031,-1.587402344, 
205,321246800,7.08288908,46.2947731,-80.79232025,-6.983632565,1.185386658,6.114471436,-4.177873611,-2.655107498,-10.23000431,-0.102539063,0.064453125,-1.589355469, 
206,321255133,6.866607189,45.90286636,-81.07123566,-6.852290154,1.001271367,6.206369877,-1.71407032,-49.65460968,-17.44675446,-0.105957031,0.0625,-1.586425781, 
207,321263466,6.63781929,45.39133072,-81.34358978,-7.21509552,0.717583776,6.068964958,-3.223218441,-65.53823853,-14.75000191,-0.116699219,0.064941406,-1.593261719, 
208,321271799,6.463603973,44.82702255,-81.54564667,-7.332734108,0.631204963,6.298335075,-3.598085642,-69.38922882,-9.396789551,-0.128417969,0.066894531,-1.596191406, 
209,321280132,6.30116272,44.24187088,-81.70809937,-7.175150394,0.666602612,6.348329544,-4.96899271,-73.25756073,-5.319807053,-0.1328125,0.065917969,-1.596679688, 
210,321288465,6.15089941,43.57338333,-81.83420563,-6.815851212,0.67393744,6.48663044,-7.40280056,-81.09594727,-2.258663654,-0.1484375,0.067871094,-1.602050781, 
211,321296798,5.989726543,42.82403183,-81.94692993,-6.622005939,0.698603451,6.59300375,-9.209809303,-92.46574402,0.360420614,-0.153320313,0.069824219,-1.604980469, 
212,321305131,5.863864422,41.95944214,-82.01863098,-6.591598511,0.572636962,6.712953091,-9.166871071,-104.029747,4.27075386,-0.168457031,0.071777344,-1.607910156, 
213,321313464,5.738610744,41.04353714,-82.04594421,-6.705200195,0.530794084,6.855465412,-11.97892475,-111.6197891,9.29018116,-0.184570313,0.069824219,-1.615722656, 
214,321321797,5.609528065,40.03065491,-82.03243256,-6.57613945,0.709206641,7.02867794,-16.40465927,-121.0104218,13.12498283,-0.198730469,0.074707031,-1.62109375, 
215,321330130,5.467756748,38.96207809,-81.9936142,-6.447299957,0.488444269,6.919192791,-19.07087135,-129.3474579,16.53757095,-0.219726563,0.077148438,-1.624023438, 
216,321338463,5.367306709,37.78266144,-81.95474243,-6.144177437,0.532847583,7.194901943,-14.80617714,-140.7409973,16.88389969,-0.23828125,0.075683594,-1.625976563, 
217,321346796,5.248871803,36.45183563,-81.93206787,-6.171416283,0.53013581,7.375600338,-14.93329144,-160.9248657,17.47621727,-0.259765625,0.078613281,-1.633300781, 
218,321355129,5.139695644,34.95271683,-81.96601105,-6.389523029,0.390711159,7.406655788,-10.57840633,-179.6519012,12.87362289,-0.28125,0.076660156,-1.640625, 
219,321363462,4.999804497,33.33027649,-82.08737183,-6.405146122,0.543953001,7.5223279,-7.658470154,-197.1417084,5.694905281,-0.3046875,0.080566406,-1.6484375, 
220,321371795,4.893743515,31.58166885,-82.26436615,-6.068241596,0.532288074,7.746205807,-1.179645658,-210.8018951,0.119238906,-0.337402344,0.083007813,-1.651855469, 
221,321380128,4.815858841,29.73013687,-82.47319794,-5.548614502,0.540253282,7.738177776,4.43402338,-225.4665833,-2.2214818,-0.370605469,0.083007813,-1.654296875, 
222,321388461,4.770550728,27.68937111,-82.67636871,-4.950602055,0.445899576,7.76099062,6.426800251,-246.035553,-0.963108242,-0.407714844,0.079589844,-1.654785156, 
223,321396794,4.780519962,25.53667831,-82.85871887,-4.779474258,0.468386561,8.242077827,12.04402637,-261.4086609,2.415132523,-0.443847656,0.077636719,-1.656738281, 
224,321405127,4.869220257,23.34848404,-83.00725555,-4.762321472,0.363330841,8.688690186,18.17456818,-263.2388,5.797394753,-0.474609375,0.07421875,-1.661132813, 
225,321413460,4.992647171,21.26875496,-83.14161682,-4.370195389,0.445163459,9.073671341,22.02305984,-252.3322754,6.945922852,-0.517089844,0.074707031,-1.658691406, 
226,321421793,5.134500504,19.2374115,-83.27373505,-3.761404991,0.468957216,8.934394836,22.66683006,-244.3486481,6.583617687,-0.556152344,0.067871094,-1.657714844, 
227,321430126,5.267525196,17.2827549,-83.41525269,-3.341423035,0.471490562,8.962134361,22.43665886,-237.5241547,5.517070293,-0.58984375,0.0625,-1.654785156, 
228,321438459,5.361959457,15.26727581,-83.59365082,-3.307863474,0.66980505,9.039860725,17.49177551,-242.9533234,1.822932482,-0.625,0.059570313,-1.649902344, 
229,321446792,5.413593292,13.10305882,-83.86963654,-2.893849611,0.715031981,8.956717491,15.52346611,-264.0626526,-7.320552349,-0.661132813,0.059082031,-1.646484375, 
230,321455125,5.48507309,10.76786423,-84.21009827,-2.402425528,0.715947092,9.174355507,17.19047165,-282.9953918,-13.30191612,-0.697265625,0.053222656,-1.637207031, 
231,321463458,5.532037735,8.340143204,-84.57017517,-1.933111668,0.681335211,9.294506073,14.05752087,-296.6089478,-14.25600815,-0.741699219,0.051269531,-1.624511719, 
232,321471791,5.59776783,5.945128441,-84.89813232,-1.304310799,0.358016819,8.944393158,12.94898224,-290.0853577,-11.11593151,-0.784667969,0.048339844,-1.615234375, 
233,321480124,5.697323322,3.76005888,-85.15102386,-1.056216598,0.325126678,8.867968559,16.08611298,-266.7875366,-7.449076176,-0.819824219,0.041992188,-1.599609375, 
234,321488457,5.844988346,1.675915718,-85.38253784,-0.734333694,0.474868149,9.556138992,19.20646667,-251.8761292,-2.577654362,-0.857421875,0.040527344,-1.583984375, 
235,321496790,5.922320366,-0.428419054,-85.58034515,-0.673898697,0.774949193,9.689873695,10.93146992,-256.4453125,-0.304852694,-0.893066406,0.038085938,-1.568847656, 
236,321505123,6.031033039,-2.514154673,-85.81030273,0.05080989,0.597202837,9.320563316,12.51211643,-252.0631409,-1.501616359,-0.926757813,0.038085938,-1.556640625, 
237,321513456,6.125253677,-4.479101181,-86.00537109,0.373593807,0.704113781,9.442249298,11.27550888,-239.5241089,1.681467414,-0.957519531,0.034179688,-1.540039063, 
238,321521789,6.23285532,-6.422985554,-86.16732788,0.740451753,0.73822695,9.259317398,11.24661541,-234.2666626,5.743924618,-0.989746094,0.030761719,-1.5234375, 
239,321530122,6.348165035,-8.144425392,-86.2857132,1.28125155,0.624219775,9.417574883,13.45840836,-209.4498901,8.502680779,-1.018554688,0.03125,-1.5078125, 
240,321538455,6.475302696,-9.626673698,-86.37044525,1.199027181,0.597216368,9.410695076,13.87007713,-178.1560211,9.75047493,-1.040039063,0.031738281,-1.490722656, 
241,321546788,6.606534958,-11.06683731,-86.46116638,1.361753583,0.724812627,9.405573845,15.2336235,-175.4652557,8.860603333,-1.057617188,0.026855469,-1.474609375, 
242,321555121,6.755519867,-12.61682034,-86.59473419,1.758481145,0.767669499,9.127971649,14.77758026,-186.8460236,5.929764271,-1.083007813,0.024902344,-1.4609375, 
243,321563454,6.943219662,-14.23506641,-86.76530457,1.999974012,0.766868472,8.907522202,19.23871613,-197.7462463,3.144192934,-1.106933594,0.024414063,-1.441894531, 
244,321571787,7.186271667,-15.88722897,-86.9588623,2.14946866,0.712922513,8.801517487,23.32163429,-199.8058929,1.995023131,-1.127929688,0.022460938,-1.421875, 
245,321580120,7.456160545,-17.41743088,-87.13095093,2.359050035,0.775387228,8.893769264,27.94428253,-187.2060547,3.467854261,-1.147949219,0.015625,-1.408691406, 
246,321588453,7.743926048,-18.92886925,-87.28508759,2.37904048,0.920536637,9.134928703,28.95813751,-182.4034271,6.438446999,-1.169433594,0.015136719,-1.383789063, 
247,321596786,8.023091316,-20.46549225,-87.44095612,2.779416561,0.989340127,9.062623978,28.68456841,-187.6348419,7.491826057,-1.186523438,0.013671875,-1.366699219, 
248,321605119,8.325797081,-22.08863449,-87.60792542,2.990939856,1.041007638,8.908385277,29.2535305,-195.7627258,9.088846207,-1.206542969,0.010253906,-1.349121094, 
249,321613452,8.621850967,-23.77796364,-87.78352356,3.352287054,1.089073896,8.587340355,28.79853249,-205.9820557,10.26628399,-1.227050781,0.004882813,-1.325683594, 
250,321621785,8.939806938,-25.53975487,-87.95494843,3.949603319,0.97495532,8.103128433,29.77492332,-212.1081238,13.67198467,-1.244628906,0.006347656,-1.30078125, 
251,321630118,9.251624107,-27.25902557,-88.10472107,4.11537075,1.03507328,7.959327698,30.88916206,-208.9087524,16.26011276,-1.265625,0.001464844,-1.274902344, 
252,321638451,9.567000389,-28.92941666,-88.27669525,4.255505085,1.069378257,8.052001953,28.33317947,-201.0511169,14.6859827,-1.282226563,0.000488281,-1.254882813, 
253,321646784,9.79850769,-30.4483757,-88.45470428,4.610197544,1.205589175,8.214197159,18.64636421,-185.3997955,11.84601212,-1.299316406,0.001464844,-1.231933594, 
254,321655117,9.961074829,-31.86416435,-88.65861511,4.709845543,1.221638799,7.986088276,7.059504509,-171.2987366,8.396473885,-1.314941406,0.002929688,-1.211914063, 
255,321663450,10.1107893,-33.18286514,-88.88278961,5.215465546,1.350019693,8.024993896,4.929920197,-162.3615265,4.665062904,-1.326660156,0.001953125,-1.189453125, 
256,321671783,10.22643185,-34.39816666,-89.07764435,5.589420319,1.378696799,7.954642296,1.088356972,-147.3131409,6.496881008,-1.338867188,0.000976563,-1.170410156, 
257,321680116,10.27221966,-35.46579361,-89.2355423,5.509358406,1.215218544,7.862235546,-3.952618599,-131.4020996,6.893011093,-1.345214844,0.001953125,-1.155273438, 
258,321688449,10.26678181,-36.43800735,-89.35554504,5.700874805,1.260678172,7.660754681,-8.886968613,-117.2195282,9.206419945,-1.357421875,0.005859375,-1.137207031, 
259,321696782,10.18150997,-37.30809784,-89.41773987,5.689406872,1.187456369,7.818581104,-13.33590603,-106.3396072,11.99715137,-1.364746094,0.005859375,-1.125, 
260,321705115,10.04485989,-38.13291931,-89.44876099,5.88714695,1.168702245,7.70246315,-18.45046043,-98.30937195,14.36181355,-1.370605469,0.008300781,-1.109375, 
261,321713448,9.843929291,-38.90236282,-89.43135071,5.916412354,1.118470788,7.464955807,-21.45594215,-93.1745224,16.85808372,-1.377929688,0.012695313,-1.09765625, 
262,321721781,9.653395653,-39.72934341,-89.42621613,6.092046261,0.933161736,6.945709705,-22.24483299,-98.08074951,17.1545105,-1.383300781,0.017089844,-1.086914063, 
263,321730114,9.494338989,-40.51660156,-89.43269348,6.269107819,0.730544746,6.629678249,-18.25283623,-95.75372314,14.39182854,-1.390625,0.019042969,-1.073730469, 
264,321738447,9.386732101,-41.25926971,-89.46768951,6.260643005,0.847949207,6.661757946,-15.42682076,-88.80039215,11.37066269,-1.39453125,0.019042969,-1.060546875, 
265,321746780,9.290801048,-41.95042038,-89.50263214,6.257899284,0.871786535,6.733675957,-12.96936607,-84.76730347,9.571295738,-1.400390625,0.0234375,-1.047851563, 
266,321755113,9.234802246,-42.60707092,-89.53961945,6.595625877,0.908744156,6.49871397,-9.468866348,-78.67064667,9.325848579,-1.401367188,0.025390625,-1.038085938, 
267,321763446,9.167899132,-43.11396027,-89.54405212,6.860809803,0.800416708,6.492559433,-7.07075882,-62.46684265,8.513728142,-1.40625,0.026855469,-1.027832031, 
268,321771779,9.123682022,-43.49361801,-89.54201508,6.810043812,0.769663632,6.569167137,-4.898910522,-45.32800293,7.298623085,-1.411132813,0.02734375,-1.021972656, 
269,321780112,9.058521271,-43.70709991,-89.50133514,6.990613937,0.806720376,6.584621429,-3.13864255,-27.00085449,6.68730545,-1.409667969,0.029785156,-1.01953125, 
270,321788445,9.005187035,-43.72710419,-89.44446564,6.942985058,0.632786632,6.659230232,-1.437624693,-1.979493618,5.134207249,-1.406738281,0.028808594,-1.016601563, 
271,321796778,8.937300682,-43.49831009,-89.37001801,7.030673981,0.613733649,6.730144024,-0.661206365,25.94909477,1.241894245,-1.408203125,0.030273438,-1.015625, 
272,321805111,8.890687943,-43.02801514,-89.28005219,7.221135616,0.590805411,6.52374649,2.056790352,56.58541489,-1.091246128,-1.404296875,0.027832031,-1.0234375, 
273,321813444,8.836634636,-42.27043533,-89.13840485,7.0857234,0.611066163,6.543297768,6.395369053,89.64516449,-2.523685694,-1.404296875,0.031738281,-1.0390625, 
274,321821777,8.818154335,-41.25595474,-88.98166656,6.876222134,0.668047071,6.586853027,10.56602478,122.0600586,-4.931138515,-1.3984375,0.028320313,-1.051269531, 
275,321830110,8.781121254,-39.97403717,-88.77081299,6.713477612,0.784049034,6.652902603,13.44965935,152.9749603,-5.407993793,-1.388183594,0.030273438,-1.069335938, 
276,321838443,8.75038147,-38.46377182,-88.54374695,6.385640144,0.826306999,6.886613369,13.8015976,181.9398804,-6.868991375,-1.377441406,0.026367188,-1.091308594, 
277,321846776,8.677983284,-36.75762558,-88.32912445,6.200704575,0.77433759,7.096611977,8.510245323,203.6027069,-11.6583128,-1.367675781,0.023925781,-1.118652344, 
278,321855109,8.640398979,-34.9894371,-88.14414215,5.84271431,0.748929083,7.397997379,8.762813568,212.0756073,-14.27415466,-1.352539063,0.025390625,-1.146972656, 
279,321863442,8.594069481,-33.20876312,-87.99823761,5.222122192,1.015411139,7.956032276,5.796411991,211.67276,-18.42164803,-1.336425781,0.018066406,-1.172363281, 
280,321871775,8.565187454,-31.53687668,-87.95282745,4.607475758,1.171905518,8.194840431,-0.277770549,198.6642303,-25.48960114,-1.320800781,0.016601563,-1.198242188, 
281,321880108,8.546114922,-30.05738068,-87.94119263,4.43492794,0.89155674,7.722500324,0.024628758,174.0104218,-25.89346886,-1.305664063,0.014648438,-1.22265625, 
282,321888441,8.562621117,-28.738657,-87.9588623,4.182759762,0.993995667,8.231977463,1.21356523,155.8033447,-25.47855568,-1.294433594,0.014160156,-1.239746094, 
283,321896774,8.538835526,-27.46575737,-87.97428894,3.868936062,1.06644547,8.537881851,-2.095337391,149.0541077,-24.92197037,-1.275878906,0.010742188,-1.260742188, 
284,321905107,8.486303329,-26.15399742,-87.99093628,3.82482481,1.248341084,8.727489471,-6.924113274,155.0016632,-25.17411423,-1.267578125,0.011230469,-1.277832031, 
285,321913440,8.381699562,-24.71889114,-87.96641541,3.878956079,1.157071829,8.799800873,-9.621362686,168.9418182,-23.15890884,-1.253417969,0.006835938,-1.295898438, 
286,321921773,8.277686119,-23.2136097,-87.87049866,3.744012594,1.113226533,8.893820763,-7.521273136,179.8363495,-15.86860275,-1.239257813,0.007324219,-1.316894531, 
287,321930106,8.153950691,-21.62925529,-87.69515991,3.539565086,1.138224125,8.825678825,-5.133920193,189.1202393,-8.362464905,-1.217773438,0.007324219,-1.336425781, 
288,321938439,8.061244011,-19.95672035,-87.47816467,3.194396973,1.158654928,8.907746315,-1.591392636,201.7127075,-4.311466694,-1.197753906,0.007324219,-1.360351563, 
289,321946772,7.980565548,-18.23113632,-87.24362946,2.85001111,1.094066739,8.844302177,1.232155204,206.9226532,-2.913908482,-1.175292969,0.006835938,-1.380371094, 
290,321955105,7.946552277,-16.56500816,-87.04029846,2.593724489,0.942461491,8.827754974,3.509210587,200.8084869,-4.747459412,-1.15234375,0.009277344,-1.401367188, 
291,321963438,7.932125092,-14.96955299,-86.87229156,2.324791908,0.848133147,8.854767799,5.462014198,190.4604492,-7.496707439,-1.133789063,0.008789063,-1.418945313, 
292,321971771,7.954721928,-13.40466595,-86.7103653,2.193237782,1.018410563,9.044732094,7.772511005,188.1583862,-7.40335989,-1.110351563,0.007324219,-1.437011719, 
293,321980104,7.965365887,-11.80014896,-86.51868439,1.861650229,1.055423617,9.295330048,8.041581154,191.9506836,-4.616885662,-1.087890625,0.006835938,-1.455078125, 
294,321988437,7.96269083,-10.27951622,-86.32788086,0.906148732,1.03963387,9.512512207,4.366652012,183.3942719,-3.134276152,-1.068359375,0.006347656,-1.473632813, 
295,321996770,7.922849655,-9.234716415,-86.25110626,0.843509376,1.177144289,9.176654816,-1.459032297,123.5792313,-8.444256783,-1.046875,0.002441406,-1.486816406, 
296,322005103,7.913360596,-8.643596649,-86.29785919,1.646949053,1.203398347,8.986138344,-1.70355916,69.0506897,-15.36691856,-1.034667969,0.004882813,-1.494140625, 
297,322013436,7.889648914,-8.169204712,-86.35079956,1.440683722,1.048766017,8.982903481,-2.005548954,53.58460236,-14.12426567,-1.027832031,0.00390625,-1.497070313, 
298,322021769,7.849237442,-7.554053783,-86.36356354,0.909660995,0.994591475,9.222242355,-4.747441769,72.46724701,-11.71472549,-1.020019531,0.00390625,-1.503417969, 
299,322030102,7.766812325,-6.701828003,-86.36474609,0.647202492,0.884040713,9.421666145,-8.140328407,99.41055298,-14.07601738,-1.009277344,0.005859375,-1.508789063, 
300,322038435,7.702503681,-5.731703281,-86.37149811,0.694507778,0.892799556,9.387121201,-7.489294052,114.7950439,-16.56941795,-0.996582031,0.003417969,-1.519042969, 
301,322046768,7.662853241,-4.709499359,-86.36743164,0.763685107,1.046325684,9.103427887,-2.920521498,119.7054901,-15.91655922,-0.979980469,0.004882813,-1.529296875, 
302,322055101,7.693936825,-3.621709108,-86.35367584,0.575093091,1.014554262,9.078257561,4.172044754,129.1296387,-15.91041565,-0.968261719,0.005371094,-1.538085938, 
303,322063434,7.753326893,-2.361159563,-86.31654358,0.386463761,0.951980889,9.156862259,9.167528152,148.5690002,-15.86108208,-0.946777344,0.005371094,-1.550292969, 
304,322071767,7.851036072,-0.935107231,-86.24243164,0.057750277,0.865696967,9.435124397,12.3059473,170.2887268,-14.52523422,-0.923339844,0.002441406,-1.559082031, 
305,322080100,7.968799591,0.61920929,-86.11158752,-0.208719939,0.765351653,9.755335808,15.98830509,184.9976501,-9.978355408,-0.900390625,-0.001464844,-1.569824219, 
306,322088433,8.108692169,2.251522779,-85.91973877,-0.650516748,0.868702173,9.806344986,16.54088402,196.7075043,-4.704766273,-0.875488281,-0.004394531,-1.583007813, 
307,322096766,8.229912758,3.94294095,-85.69874573,-0.961921036,1.038331747,9.624284744,14.95393085,202.7601166,-2.397976875,-0.847167969,-0.004394531,-1.597167969, 
308,322105099,8.354743004,5.605154991,-85.45446014,-1.088698149,1.078496814,9.420068741,12.87361145,201.1265717,0.040497556,-0.820800781,-0.005371094,-1.604492188, 
309,322113432,8.475172043,7.239471436,-85.17954254,-1.22967279,1.075867295,9.466669083,12.6091423,196.8557129,4.061019897,-0.787597656,-0.004882813,-1.616210938, 
310,322121765,8.60422039,8.844377518,-84.88110352,-2.011161566,1.03887713,9.413733482,10.81561565,195.2466278,6.370013237,-0.763671875,-0.005859375,-1.623046875, 
311,322130098,8.67778492,10.34920692,-84.62413025,-2.456871986,1.145080328,9.377840996,5.522101879,181.1398621,3.347211123,-0.734863281,-0.008300781,-1.632324219, 
312,322138431,8.713503838,11.70183754,-84.41161346,-2.351202011,1.084573984,9.215691566,-0.246043354,163.7558594,0.106967583,-0.711425781,-0.0078125,-1.635253906, 
313,322146764,8.721889496,13.00010014,-84.18021393,-2.385162115,1.062241197,9.126943588,-2.07783246,155.3878021,-0.708210289,-0.688476563,-0.008300781,-1.642578125, 
314,322155097,8.729685783,14.29864502,-83.95625305,-2.611126661,1.113874793,9.043279648,-5.057243824,157.5016785,2.077538967,-0.666503906,-0.004882813,-1.645996094, 
315,322163430,8.717370987,15.66881466,-83.68978119,-3.047127008,1.219636559,9.108945847,-7.929294586,165.1274872,6.149255276,-0.64453125,-0.003417969,-1.654785156, 
316,322171763,8.673356056,16.94671059,-83.43305969,-3.539337873,1.483983397,8.870392799,-13.57751465,155.5652313,5.935996056,-0.614257813,0.000488281,-1.655761719, 
317,322180096,8.590482712,18.01479721,-83.28497314,-3.314969778,1.439775586,8.663389206,-13.4932766,127.1426468,-1.865908623,-0.600585938,0,-1.657226563, 
318,322188429,8.545310974,18.90973282,-83.20471954,-3.067476511,1.250679851,8.752485275,-8.111661911,107.0575714,-7.074198246,-0.579589844,0.003417969,-1.660644531, 
319,322196762,8.51996994,19.72517967,-83.14089203,-3.299397707,1.096192479,8.642830849,-3.834058762,95.65605164,-6.727876663,-0.56640625,0.005859375,-1.66015625, 
320,322205095,8.533763885,20.53346062,-83.0710144,-3.513594151,1.080362082,8.487018585,-0.864858866,96.58765411,-6.70556736,-0.550292969,0.004882813,-1.661132813, 
321,322213428,8.58127594,21.46084023,-82.9888382,-3.72282505,1.013296485,8.484519005,3.88495183,109.2365875,-6.778506756,-0.536132813,0.00390625,-1.663574219, 
322,322221761,8.705410957,22.5205822,-82.86817932,-3.964833736,0.884626925,8.691841125,9.843025208,127.2349472,-5.945725441,-0.517578125,0.00390625,-1.664550781, 
323,322230094,8.871981621,23.74555969,-82.7092514,-4.101023197,0.717154741,8.598524094,14.19662476,145.7495728,-4.397957802,-0.494628906,0.004394531,-1.663574219, 
324,322238427,9.107540131,25.12024689,-82.48968506,-4.347319126,0.649641335,8.40292263,17.74262428,166.1736755,-2.187829971,-0.470703125,0.000976563,-1.663574219, 
325,322246760,9.428082466,26.70806503,-82.17730713,-4.66027832,0.627010524,8.342597008,23.77811241,191.263916,3.406317711,-0.446777344,-0.001464844,-1.659667969, 
326,322255093,9.897193909,28.48459816,-81.70307922,-4.91698122,0.661355197,8.205489159,30.30698776,218.1092834,13.8316412,-0.415039063,-0.000976563,-1.662597656, 
327,322263426,10.49577713,30.45864487,-81.07507324,-5.27379179,0.947793067,8.010801315,36.42638397,242.5119019,23.58574104,-0.381835938,-0.011230469,-1.655761719, 
328,322271759,11.20053005,32.50546646,-80.32401276,-5.705852032,1.242567182,7.671145916,37.87730789,255.1743927,29.16046906,-0.343261719,-0.014160156,-1.653320313, 
329,322280092,11.90354633,34.48434067,-79.57254028,-6.145805359,1.571255445,7.318561554,36.21987152,245.4198761,27.20590973,-0.305664063,-0.020507813,-1.650390625, 
330,322288425,12.44937134,36.09610748,-78.98331451,-6.263425827,1.991380572,7.15788269,25.03549194,200.7055817,15.51733112,-0.274414063,-0.023925781,-1.643554688, 
331,322296758,12.66999722,37.17580414,-78.72229767,-5.903553009,2.150242329,6.99885416,9.335759163,129.5508423,-2.486807823,-0.249511719,-0.02734375,-1.638671875, 
332,322305091,12.64731598,37.72752762,-78.73641968,-5.487811565,1.961023211,6.877344608,-1.297250748,63.76538849,-15.92531204,-0.236816406,-0.027832031,-1.635742188, 
333,322313424,12.4890728,37.99706268,-78.88345337,-5.687859058,1.730687618,6.807981014,-6.684693336,26.10684395,-19.50201797,-0.229980469,-0.026367188,-1.631835938, 
334,322321757,12.30717278,38.18050003,-79.0598526,-6.258058071,1.462357163,6.920175076,-8.369009018,17.37775993,-21.10190582,-0.227539063,-0.022949219,-1.633300781, 
335,322330090,12.09479713,38.36722946,-79.23529053,-6.537670135,1.383114457,7.063903809,-11.00146198,15.98605919,-19.80003357,-0.228515625,-0.018066406,-1.629394531, 
336,322338423,11.8939867,38.48546982,-79.38522339,-6.502784252,1.323102593,7.17160368,-12.51167583,10.39940929,-16.83774185,-0.222167969,-0.017578125,-1.631835938, 
337,322346756,11.70989895,38.60040283,-79.51363373,-6.546441078,1.184033275,7.175403595,-11.04064846,8.567248344,-13.5371666,-0.22265625,-0.018066406,-1.629882813, 
338,322355089,11.57500553,38.7516098,-79.58824921,-6.584856033,1.091372252,7.144532681,-10.18270016,15.8031435,-10.61027813,-0.219726563,-0.014648438,-1.631347656, 
339,322363422,11.45102978,39.00084686,-79.61076355,-6.652008533,1.074159026,7.120844364,-11.72037983,26.38038063,-6.940170288,-0.215332031,-0.009765625,-1.630371094, 
340,322371755,11.36899471,39.2961731,-79.5708847,-6.556694508,1.130794168,6.950745583,-12.45000458,34.90888596,-3.474741459,-0.211914063,-0.011230469,-1.628417969, 
341,322380088,11.33110046,39.68893051,-79.48536682,-6.512504101,1.114809513,6.904433727,-9.600809097,45.21143723,-0.400901973,-0.203613281,-0.0078125,-1.630371094, 
342,322388421,11.39453697,40.15972137,-79.31804657,-6.552569389,1.111914396,6.831940174,-4.854103565,57.85386658,3.865557909,-0.198730469,-0.008789063,-1.624511719, 
343,322396754,11.48870277,40.68680191,-79.12166595,-6.426450253,1.223152876,6.787846565,-2.517081499,62.95119858,6.165624142,-0.189941406,-0.006347656,-1.624023438, 
344,322405087,11.60262299,41.15113068,-78.93286896,-6.431987762,1.208867669,6.554590225,-0.74485141,57.44504166,5.520832062,-0.183105469,-0.005859375,-1.619628906, 
345,322413420,11.68135071,41.58726501,-78.80531311,-6.634003639,1.269326925,6.567753792,0.781645656,50.94311142,1.834751725,-0.174804688,-0.005859375,-1.616699219, 
346,322421753,11.70966148,41.89362717,-78.72654724,-6.769916534,1.426268458,6.602190018,-2.469894171,36.85040283,-0.642854154,-0.166015625,-0.005859375,-1.61328125, 
347,322430086,11.62850666,42.01844406,-78.75701141,-6.755964279,1.499761343,6.578869343,-5.854454994,11.45046234,-4.545080662,-0.164550781,-0.007324219,-1.611816406, 
348,322438419,11.43222427,41.84355545,-78.93665314,-6.638185024,1.517046213,6.435585499,-8.717028618,-24.35944557,-11.61692047,-0.1640625,-0.002929688,-1.612304688, 
349,322446752,11.18717194,41.51548386,-79.22128296,-6.505729198,1.291962504,6.383677959,-5.258394718,-46.31432724,-16.17745781,-0.172851563,-0.001464844,-1.614257813, 
350,322455085,10.96447468,41.09149933,-79.51560974,-6.603559017,1.178727031,6.491919994,-2.972169161,-55.62574005,-16.36266518,-0.178710938,-0.000976563,-1.619628906, 
351,322463418,10.77335453,40.67468262,-79.78103638,-6.720597744,1.151880622,6.741517067,-0.645006716,-56.39828873,-13.13572216,-0.1875,0.000976563,-1.619628906, 
352,322471751,10.62628651,40.21522903,-80.01410675,-6.850636005,1.203902841,6.808616638,0.937791407,-58.72949219,-10.77329159,-0.194335938,-0.002441406,-1.62109375, 
353,322480084,10.44989491,39.64886093,-80.28093719,-6.724198818,1.415237665,6.927749634,0.859745979,-74.08283234,-10.65158939,-0.202148438,0.001464844,-1.625976563, 
354,322488417,10.24073505,38.86055374,-80.57641602,-6.449753284,1.403622627,6.849976063,-2.215330124,-98.60193634,-10.11685181,-0.216796875,0.003417969,-1.629394531, 
355,322496750,10.01853752,37.97085953,-80.86541748,-6.121882915,1.254113078,6.904691219,-3.617757082,-112.7016296,-6.95397234,-0.228027344,0.000976563,-1.632324219, 
356,322505083,9.821367264,36.95758057,-81.07306671,-6.071409225,1.260516763,6.991458416,-8.051470757,-123.8027802,1.369919181,-0.247558594,0.005371094,-1.634277344, 
357,322513416,9.602874756,35.82357407,-81.26338196,-6.051986694,1.151598692,7.043049335,-11.15502834,-140.0858459,5.800598621,-0.266601563,0.00390625,-1.641601563, 
358,322521749,9.40649128,34.47510147,-81.41893005,-5.926602364,1.181772232,7.624732018,-12.36337185,-162.7423859,11.5741663,-0.286621094,0.006835938,-1.645507813, 
359,322530082,9.197861671,32.90897369,-81.57331085,-5.780465126,1.231134176,7.862713814,-13.21044636,-190.8586426,16.06044388,-0.311523438,0.012207031,-1.650390625, 
360,322538415,9.0011549,31.13175011,-81.72113037,-5.262095451,1.104617357,7.904185295,-13.73779297,-213.5986938,18.78539658,-0.343261719,0.01171875,-1.654785156, 
361,322546748,8.816524506,29.26526833,-81.87773895,-5.096583366,1.012263417,7.979792118,-11.11402321,-226.7165375,19.44879913,-0.372070313,0.010742188,-1.655761719, 
362,322555081,8.678975105,27.33261681,-82.01224518,-4.837209702,0.879422486,8.142531395,-8.388896942,-232.0266876,21.1323967,-0.407226563,0.015625,-1.663085938, 
363,322563414,8.530552864,25.36971283,-82.08519745,-4.722880363,0.86849463,8.183547974,-12.28929043,-237.0056,28.21652412,-0.440917969,0.012207031,-1.664550781, 
364,322571747,8.397666931,23.44796753,-82.13145447,-4.887424469,0.885745525,8.321063995,-13.18451405,-229.4924164,28.85472488,-0.475097656,0.012207031,-1.6640625, 
365,322580080,8.215474129,21.582407,-82.19978333,-4.869330883,1.22542727,8.69787693,-17.03192711,-225.5849304,25.49186325,-0.509765625,0.021484375,-1.664550781, 
366,322588413,7.971866608,19.64985466,-82.34875488,-4.190131664,1.119698524,8.787330627,-22.46373367,-232.6103973,15.99494267,-0.542480469,0.022949219,-1.661621094, 
367,322596746,7.742782116,17.82164764,-82.52837372,-3.467550039,0.865874171,8.733721733,-18.83640289,-223.1844788,10.33360004,-0.575195313,0.023925781,-1.658691406, 
368,322605079,7.573418617,16.11373901,-82.67046356,-3.173465967,0.774830818,8.934886932,-14.87266159,-205.9571533,11.06000423,-0.606445313,0.024414063,-1.65625, 
369,322613412,7.44252491,14.54302692,-82.77944183,-3.24913311,0.846605599,9.179265022,-10.48361969,-191.631485,12.60433006,-0.635742188,0.026855469,-1.6484375, 
370,322621745,7.291715145,12.87273598,-82.96343231,-2.95514679,1.066086411,9.096329689,-12.38502121,-202.2012177,4.339797974,-0.663085938,0.026855469,-1.647949219, 
371,322630078,7.159910202,11.1629715,-83.24016571,-1.932248235,0.787934542,9.01044178,-7.084727287,-210.772522,-6.011755466,-0.692871094,0.03125,-1.643066406, 
372,322638411,7.103046417,9.495469093,-83.50105286,-1.400780082,0.625012279,9.039401054,-0.725050151,-203.051651,-5.806434155,-0.724609375,0.030273438,-1.62890625, 
373,322646744,7.081075668,8.014914513,-83.64823151,-1.472070932,0.646007121,9.142489433,3.02986908,-182.5603943,-3.008364916,-0.751464844,0.030761719,-1.624023438, 
374,322655077,7.079013824,6.616738796,-83.84840393,-1.633039236,0.731171489,9.165476799,3.30042696,-170.1207123,-3.051258087,-0.778808594,0.025878906,-1.615234375, 
375,322663410,7.082843304,5.304877758,-84.00733185,-1.288843989,0.751790941,9.191848755,4.978396416,-162.4830322,-6.063222885,-0.797851563,0.026367188,-1.613769531, 
376,322671743,7.118423462,4.01802969,-84.21817017,-0.856771171,0.759115398,9.304099083,6.820860863,-157.0466461,-6.042235374,-0.821777344,0.026367188,-1.602050781, 
377,322680076,7.160074711,2.797054529,-84.34350586,-0.737414241,0.740029991,9.488929749,8.123001099,-151.0892639,-2.626972437,-0.84375,0.025878906,-1.595703125, 
378,322688409,7.212117195,1.534187078,-84.50848389,-0.84381032,0.775961578,9.501059532,7.493907928,-153.5276794,-0.791662931,-0.863769531,0.023925781,-1.5859375, 
379,322696742,7.269722939,0.227107793,-84.65246582,-0.553256452,0.727522373,9.458936691,9.174128532,-161.4840393,-2.33901763,-0.883789063,0.020507813,-1.578613281, 
380,322705075,7.340582848,-1.161813378,-84.81976318,-0.180416301,1.164558887,9.54945755,8.84590435,-168.5779572,1.144280553,-0.910644531,0.01953125,-1.56640625, 
381,322713408,7.377824306,-2.595059872,-84.97547913,-0.073567308,1.032632113,9.43452549,5.871813774,-176.0723572,3.533349514,-0.930175781,0.017089844,-1.554199219, 
382,322721741,7.434830189,-4.063646317,-85.14168549,0.157666802,0.877150178,9.284296036,6.194437504,-178.0433197,2.824176073,-0.952148438,0.019042969,-1.543945313, 
383,322730074,7.475304127,-5.566095829,-85.34986877,0.153116435,0.984073341,9.390966415,4.775546551,-185.1109467,-1.337359428,-0.973144531,0.015625,-1.531738281, 
384,322738407,7.53651619,-7.203392506,-85.62142181,0.737052083,0.848907709,9.294846535,4.238089085,-199.7450256,-6.592030048,-1.001953125,0.014648438,-1.515136719, 
385,322746740,7.612967491,-8.851316452,-85.91171265,1.230864763,0.924891114,9.209858894,6.339896679,-203.7042542,-8.244960785,-1.026855469,0.014648438,-1.5, 
386,322755073,7.728855133,-10.37340164,-86.1823349,1.451996922,0.820762634,9.337880135,9.004589081,-186.0188446,-7.50164032,-1.048339844,0.010742188,-1.486328125, 
387,322763406,7.826527119,-11.75037479,-86.46087646,1.19098568,0.843658268,9.393997192,7.356561184,-171.2689056,-10.33405018,-1.069824219,0.010253906,-1.47265625, 
388,322771739,7.966613293,-13.19826126,-86.79381561,1.407918334,0.807454526,9.292308807,8.704717636,-178.1953888,-14.91669083,-1.091796875,0.010742188,-1.447265625, 
389,322780072,8.11756897,-14.68668652,-87.15140533,2.096346378,1.099855661,9.097657204,9.854470253,-185.7975922,-16.51805115,-1.110351563,0.004394531,-1.436523438, 
390,322788405,8.274751663,-16.16333961,-87.49559021,2.174278498,1.152646303,8.966277122,8.403829575,-181.8068848,-14.29477882,-1.129882813,0.001464844,-1.418945313, 
391,322796738,8.424290657,-17.58342361,-87.83312225,2.474531889,1.128225446,8.839715958,8.279866219,-177.3545532,-13.94331837,-1.15234375,-0.002441406,-1.401367188, 
392,322805071,8.58581543,-18.92192459,-88.12953949,2.972332239,1.256944656,8.733581543,8.775994301,-164.5991516,-9.798782349,-1.170410156,-0.004882813,-1.383300781, 
393,322813404,8.730759621,-20.14955711,-88.38592529,3.08625865,1.089918613,8.724179268,9.186519623,-153.1133575,-6.889322758,-1.185546875,-0.0078125,-1.369628906, 
394,322821737,8.917589188,-21.37888527,-88.63954926,3.576325893,1.198403239,8.703469276,12.16768551,-150.8936005,-5.634502411,-1.198730469,-0.01171875,-1.352539063, 
395,322830070,9.075083733,-22.57333565,-88.84992218,3.772277832,1.228459954,8.389817238,11.51813793,-148.3072205,-1.159194589,-1.21484375,-0.01171875,-1.3359375, 
396,322838403,9.266477585,-23.79475021,-89.07168579,3.951682568,0.915828645,8.342949867,13.03143597,-149.3572845,-0.935194194,-1.23046875,-0.013183594,-1.321777344, 
397,322846736,9.463264465,-24.97106171,-89.28653717,4.11622858,0.956305265,8.458229065,15.01559258,-146.1088562,-0.704840243,-1.243652344,-0.013671875,-1.303710938, 
398,322855069,9.690021515,-26.15512276,-89.4878006,3.852955103,1.144360304,8.621380806,17.33497429,-144.5000763,2.011664152,-1.256347656,-0.014648438,-1.287597656, 
399,322863402,9.947942734,-27.39433098,-89.6765976,4.011061192,1.145803332,8.569120407,22.79078293,-152.931366,4.860288143,-1.271484375,-0.017089844,-1.270996094, 
400,322871735,10.24300289,-28.60478592,-89.86266327,4.399855614,1.250060201,8.507476807,25.47474098,-147.2355347,5.912790775,-1.283691406,-0.01953125,-1.251464844, 
401,322880068,10.44503117,-29.65309906,-90.01755524,4.451726437,1.31806612,8.29532814,17.22876549,-129.629425,6.003772259,-1.295898438,-0.017578125,-1.237304688, 
402,322888401,10.61522198,-30.65565109,-90.19506836,4.450763702,1.133849025,8.07572937,10.27645111,-122.4267731,3.73933053,-1.305664063,-0.0234375,-1.21875, 
403,322896734,10.7829628,-31.71792984,-90.41553497,4.874346256,1.036135554,7.98871851,8.440724373,-132.4116974,0.771499872,-1.314453125,-0.019042969,-1.20703125, 
404,322905067,10.97119617,-32.811306,-90.69515991,5.166669369,0.984648943,7.908527374,5.234724045,-134.9868011,-3.243992329,-1.326171875,-0.020996094,-1.1875, 
405,322913400,11.11898422,-33.81410599,-90.96743011,5.404816628,1.231335044,7.884240627,1.798643947,-126.2761002,-4.453557968,-1.3359375,-0.023925781,-1.171875, 
406,322921733,11.22475815,-34.71787643,-91.21707153,5.418151855,1.306674719,7.853948116,-3.610545635,-111.9850845,-3.412109852,-1.344726563,-0.0234375,-1.157226563, 
407,322930066,11.25944328,-35.56145859,-91.42887115,5.356208801,1.447920918,7.774300098,-8.459622383,-106.2329559,-1.420093179,-1.350097656,-0.024902344,-1.145996094, 
408,322938399,11.29922104,-36.47384262,-91.64122772,5.571784973,1.370044708,7.412980556,-9.644892693,-112.1998901,1.064757228,-1.361328125,-0.024414063,-1.129394531, 
409,322946732,11.30749512,-37.35594559,-91.82013702,5.625556946,1.305392265,7.471934795,-9.919397354,-110.0373688,3.109742165,-1.365234375,-0.0234375,-1.116699219, 
410,322955065,11.3056736,-38.16827774,-91.98486328,5.538868427,1.266426086,7.619706631,-11.75196743,-99.45386505,3.653147221,-1.373046875,-0.020996094,-1.099609375, 
411,322963398,11.27149105,-38.90036011,-92.12384033,5.770956516,1.302163124,7.515138626,-12.54102707,-91.54386139,3.556319952,-1.37890625,-0.020019531,-1.092285156, 
412,322971731,11.26678276,-39.59669876,-92.26194763,6.012804985,1.197798014,7.223178387,-10.47459888,-85.26689911,3.608620882,-1.380371094,-0.01953125,-1.078613281, 
413,322980064,11.27022362,-40.23845673,-92.39593506,6.205141544,1.125555158,6.918590546,-7.969121456,-80.77920532,2.081283808,-1.387695313,-0.020019531,-1.06640625, 
414,322988397,11.27532005,-40.80335617,-92.49129486,6.638786793,1.454866767,6.55769825,-6.244648457,-68.99279785,4.586516857,-1.395019531,-0.018066406,-1.057128906, 
415,322996730,11.1963129,-41.20610809,-92.48187256,6.497014523,1.356890559,6.479673386,-6.821343422,-50.03714371,9.352074623,-1.396484375,-0.014648438,-1.052246094, 
416,323005063,11.11193085,-41.48855591,-92.43067932,6.532310009,1.244583964,6.540685177,-5.48345089,-33.17736053,10.95023918,-1.395996094,-0.013671875,-1.046386719, 
417,323013396,11.00918007,-41.6266098,-92.33901215,6.730757713,1.031511545,6.742248535,-3.153472185,-17.38443756,10.35177898,-1.400878906,-0.012207031,-1.038574219, 
418,323021729,10.93453407,-41.70289612,-92.25242615,6.728528976,0.977477193,6.79229784,-1.462060809,-8.328725815,9.230308533,-1.401367188,-0.008789063,-1.0390625, 
419,323030062,10.85245228,-41.69260406,-92.14006805,6.718770981,0.982064962,6.614875317,0.990694642,0.485709965,8.746839523,-1.401367188,-0.009765625,-1.0390625, 
420,323038395,10.78292465,-41.53840637,-92.01111603,6.702322483,0.996197343,6.592930317,2.526473522,19.5199852,7.760052204,-1.401367188,-0.007324219,-1.043457031, 
421,323046728,10.68035984,-41.18885803,-91.83303833,6.646719933,0.973565817,6.628242493,3.693283558,41.64600372,7.036586761,-1.39453125,-0.006347656,-1.049804688, 
422,323055061,10.59665394,-40.68525696,-91.63790131,6.633704185,0.950176597,6.687942028,5.89496851,61.83065033,6.100318909,-1.397949219,-0.007324219,-1.055175781, 
423,323063394,10.49469376,-39.99888229,-91.40299988,6.527897835,0.957883537,6.870044231,7.907355309,82.43209076,5.157188416,-1.389160156,-0.004394531,-1.064941406, 
424,323071727,10.41164684,-39.18203354,-91.15447235,6.370633125,0.923180997,6.979356766,9.642728806,99.73451233,4.688508987,-1.385742188,-0.006347656,-1.078125, 
425,323080060,10.3124342,-38.21197128,-90.88315582,6.251253605,0.869107068,7.138445854,10.37320995,116.6772003,3.203136683,-1.375,-0.004882813,-1.093261719, 
426,323088393,10.22658157,-37.11632919,-90.60579681,6.020540237,1.029645085,7.410802364,10.6387434,133.2338867,2.355944633,-1.370117188,-0.005859375,-1.112304688, 
427,323096726,10.10809231,-35.94457626,-90.32002258,5.72406435,1.09563899,7.7643466,8.158826828,140.9242859,1.489967704,-1.360839844,-0.006347656,-1.125488281, 
428,323105059,10.00979614,-34.81572342,-90.05638123,5.568483353,1.255263209,7.713200569,7.132363796,137.0484619,1.612148285,-1.349609375,-0.006835938,-1.145996094, 
429,323113392,9.880922318,-33.65127945,-89.81730652,5.577618122,1.179847956,7.765591621,2.669266939,139.4113617,-1.526711464,-1.340332031,-0.006347656,-1.163085938, 
430,323121725,9.757066727,-32.47759628,-89.62006378,5.254398823,1.087574005,8.029716492,-1.334499478,141.3214874,-4.598169327,-1.329101563,-0.002441406,-1.182617188, 
431,323130058,9.645559311,-31.37792015,-89.47618866,4.896837234,1.143416047,8.136142731,-2.237206459,130.2569122,-8.489992142,-1.321777344,-0.005371094,-1.19921875, 
432,323138391,9.583246231,-30.37581253,-89.38330841,4.955346107,1.265769601,8.140927315,-1.136671782,119.3165894,-10.77522659,-1.310546875,-0.007324219,-1.214355469, 
433,323146724,9.459504128,-29.2656498,-89.26160431,4.910563946,1.361412764,8.266738892,-5.546821117,131.2081757,-10.18808746,-1.296875,-0.005371094,-1.231445313, 
434,323155057,9.334074974,-27.96433067,-89.10314941,4.563930511,1.120838761,8.261086464,-5.323060513,155.9398346,-9.152318001,-1.287597656,-0.007324219,-1.248046875, 
435,323163390,9.155853271,-26.48075485,-88.90398407,4.087839603,1.091963887,8.59058094,-8.398423195,176.8932343,-8.199343681,-1.271484375,-0.009277344,-1.269042969, 
436,323171723,9.000642776,-24.99970627,-88.72231293,3.74174428,1.177182674,8.634316444,-8.530776978,177.7468109,-8.773862839,-1.258300781,-0.007324219,-1.289550781, 
437,323180056,8.874722481,-23.57692337,-88.5650177,3.673316002,1.261803865,8.453192711,-5.264217377,169.1029663,-10.02917576,-1.238769531,-0.004394531,-1.310546875, 
438,323188389,8.800595284,-22.22328568,-88.40317535,3.524476528,1.291460037,8.405454636,-0.70826292,162.4023743,-7.403570175,-1.2265625,-0.008300781,-1.328613281, 
439,323196722,8.713240623,-20.84015656,-88.21799469,3.098670006,1.104800224,8.606458664,-0.233914793,164.9503632,-5.262979984,-1.208007813,-0.006347656,-1.34765625, 
440,323205055,8.634536743,-19.44907379,-88.0192337,2.88702774,1.147218347,8.905679703,-0.59582746,167.540329,-3.163231373,-1.190917969,-0.005371094,-1.366699219, 
441,323213388,8.542420387,-18.07796478,-87.82151794,2.712902069,1.198498011,8.932939529,-1.325824142,163.8086853,-2.706669092,-1.170410156,-0.0078125,-1.375488281, 
442,323221721,8.484890938,-16.8325367,-87.64273071,2.841746807,1.146396399,8.75320816,0.170427695,149.9715729,-2.007863045,-1.156738281,-0.005371094,-1.395507813, 
443,323230054,8.425893784,-15.66128731,-87.47582245,2.781867027,1.002182961,8.990176201,0.625958562,139.6000061,-1.924788952,-1.145019531,-0.004882813,-1.41015625, 
444,323238387,8.384570122,-14.58914375,-87.33071136,2.456259012,0.956527889,9.239592552,0.226215407,128.8658447,-2.298449755,-1.127441406,-0.004394531,-1.42578125, 
445,323246720,8.336736679,-13.60887909,-87.21198273,2.007781744,1.069655538,9.189796448,-0.160731226,116.16996,-3.663954735,-1.113769531,-0.004882813,-1.435546875, 
446,323255053,8.292123795,-12.70325279,-87.11129761,1.902954459,1.178794146,9.226079941,-1.957818627,108.3642044,-4.193042278,-1.099609375,-0.000488281,-1.445800781, 
447,323263386,8.224855423,-11.73754978,-86.98397827,1.818006277,1.280560255,9.237052917,-2.716472387,114.6106415,-2.049982309,-1.084472656,-0.005371094,-1.458496094, 
448,323271719,8.147057533,-10.63797474,-86.82460785,1.479149342,1.216452837,9.257321358,-4.974796295,132.4013519,-0.34100759,-1.072753906,-0.002929688,-1.469726563, 
449,323280052,8.058548927,-9.368849754,-86.61781311,1.378608704,1.13668859,9.00083828,-4.195876598,152.0005035,2.604854345,-1.054199219,-0.002929688,-1.48046875, 
450,323288385,7.993571281,-7.927729607,-86.36904144,1.247223496,1.075561166,8.970143318,-2.656241894,174.486145,4.961494923,-1.035644531,0.002929688,-1.495117188, 
451,323296718,7.921889305,-6.242243767,-86.0583725,1.156076193,1.048108101,9.067811012,-1.901388288,203.2042847,8.586602211,-1.011230469,0.000976563,-1.509277344, 
452,323305051,7.859982014,-4.369183064,-85.69022369,0.864459455,1.027011633,9.010062218,-2.685929775,227.8006744,12.59762096,-0.980957031,0.004394531,-1.525390625, 
453,323313384,7.809051037,-2.365339518,-85.28370667,0.518621266,1.069425225,9.169471741,-1.157951832,242.6378021,15.50511837,-0.953613281,0.002929688,-1.544921875, 
454,323321717,7.784903049,-0.410306633,-84.89431763,-0.12054202,0.921194255,9.416708946,-1.104003191,237.8920288,14.33632469,-0.922851563,0.008300781,-1.562011719, 
455,323330050,7.762904644,1.296679139,-84.60068512,-0.267780721,1.006047726,9.322432518,-0.844174206,205.5184937,7.335101604,-0.888671875,0.01171875,-1.575683594, 
456,323338383,7.769270897,2.704838037,-84.40789795,-0.280502588,1.036374807,9.34314537,0.621096909,169.6687927,-0.042700015,-0.865234375,0.009765625,-1.583496094, 
457,323346716,7.740383625,3.800320387,-84.25979614,-0.960610569,1.330356717,9.549509048,-1.811298728,129.5538788,-6.789191246,-0.845703125,0.011230469,-1.597167969, 
458,323355049,7.729404926,4.410542488,-84.31452179,-1.12659502,1.378231287,9.411373138,-0.177878886,70.78490448,-16.46614838,-0.834472656,0.013183594,-1.598632813, 
459,323363382,7.724764824,4.758867741,-84.37592316,-1.05548954,1.222544312,9.436175346,2.979362488,37.18844986,-20.73157692,-0.822753906,0.013183594,-1.599609375, 
460,323371715,7.788935184,5.121264935,-84.45676422,-1.008938074,1.078407049,9.559858322,9.209999084,40.88674164,-15.57769489,-0.817382813,0.0078125,-1.604980469, 
461,323380048,7.835154057,5.636187553,-84.37735748,-1.598585963,1.074473262,9.633478165,7.636472702,59.30208588,-6.35945797,-0.808105469,0.006835938,-1.610351563, 
462,323388381,7.87364912,6.235412598,-84.29047394,-1.806142092,1.199052572,9.561504364,4.219246387,71.74571228,0.297894895,-0.801269531,0.007324219,-1.612304688, 
463,323396714,7.89564085,6.948309422,-84.07147217,-1.624839544,1.22505188,9.339035034,2.832235098,85.02307129,6.308979988,-0.789550781,0.009765625,-1.616699219, 
464,323405047,7.932611465,7.852609634,-83.84115601,-1.598152637,1.134174943,9.14840126,1.558335662,110.350563,12.04038334,-0.773925781,0.010253906,-1.622558594, 
465,323413380,7.936980247,9.024735451,-83.45572662,-1.862135291,0.97773385,9.045438766,-2.737455368,142.2138214,17.68564224,-0.757324219,0.008789063,-1.624023438, 
466,323421713,7.974272251,10.41009426,-83.09260559,-1.713999033,0.750612676,8.978779793,-2.193928242,169.6790466,19.34211349,-0.734863281,0.014648438,-1.633789063, 
467,323430046,8.071513176,11.97344875,-82.60891724,-1.566331029,0.686632514,9.028160095,4.690065861,190.0436859,20.4325695,-0.707519531,0.01171875,-1.640625, 
468,323438379,8.213300705,13.43449497,-82.2706604,-2.450465679,0.97465682,9.052127838,8.77811718,178.252594,14.16535282,-0.678222656,0.017089844,-1.647949219, 
469,323446712,8.332391739,14.55878067,-81.9859848,-2.467401505,1.111393571,9.084439278,11.1935997,134.4080505,2.414743662,-0.657714844,0.015625,-1.650878906, 
470,323455045,8.500192642,15.37928486,-81.91801453,-2.477325678,1.084259987,8.972700119,18.72603989,97.62991333,-6.841275692,-0.641113281,0.010253906,-1.655761719, 
471,323463378,8.682679176,16.05861092,-81.89680481,-3.142646313,1.100478172,8.986116409,23.17251778,78.654953,-9.418423653,-0.62890625,0.010253906,-1.658203125, 
472,323471711,8.844882965,16.63368988,-81.88150024,-3.839626551,1.214210629,9.094772339,19.64848518,67.54240417,-9.027675629,-0.614746094,0.004882813,-1.658203125, 
473,323480044,8.939331055,17.19735146,-81.8631134,-4.019413471,1.247257829,9.165194511,12.64825535,64.83403015,-7.997012615,-0.607910156,0.0078125,-1.658203125, 
474,323488377,9.007702827,17.80624199,-81.81330872,-3.852938175,1.240248919,9.100121498,7.112209797,72.12974548,-6.018387318,-0.598144531,0.004394531,-1.659667969, 
475,323496710,9.019129753,18.43838882,-81.71931458,-3.687990665,1.214190841,8.960753441,-0.192632794,74.20339203,-0.889445841,-0.588378906,0.002441406,-1.663574219, 
476,323505043,9.029006958,19.0933094,-81.59591675,-3.578547716,1.196191192,8.813107491,-2.871717453,78.88085175,1.268065214,-0.576660156,0.006835938,-1.663085938, 
477,323513376,9.037365913,19.87921906,-81.43218994,-3.555098057,1.122815967,8.770131111,-3.621406794,93.59805298,3.922210455,-0.559570313,0.006347656,-1.666015625, 
478,323521709,9.104078293,20.83678246,-81.1873703,-3.554781675,0.960388064,8.75594902,-1.504201174,116.8735275,8.832790375,-0.547851563,0.0078125,-1.665039063, 
479,323530042,9.250588417,22.03807259,-80.84123993,-3.606189966,0.871409237,8.651346207,4.304989338,146.0067749,15.6547718,-0.527832031,0.007324219,-1.666015625, 
480,323538375,9.526454926,23.51260376,-80.37917328,-3.829189539,0.910362005,8.549859047,12.34952927,181.9744568,21.32919884,-0.503417969,0.009765625,-1.665039063, 
481,323546708,9.810117722,25.02718544,-79.92099762,-4.450993061,1.480137825,8.358052254,13.31824875,185.1176453,19.43257904,-0.471679688,0.004394531,-1.665527344, 
482,323555041,9.958461761,26.10826683,-79.63903809,-4.407097816,1.562308431,7.917752743,3.915733814,132.0986938,7.551500797,-0.449707031,0.001953125,-1.668945313, 
483,323563374,10.06125832,26.88981056,-79.52792358,-4.071396351,1.287600398,7.913467407,8.233400345,91.94895935,-3.962257624,-0.431152344,0.004394531,-1.667480469, 
484,323571707,10.17988396,27.60089302,-79.44669342,-4.177840233,1.206788421,7.931958675,10.49450111,84.57428741,-6.711599827,-0.419433594,0.001953125,-1.666503906, 
485,323580040,10.2733326,28.39623833,-79.35116577,-4.84000349,1.179718375,7.870826244,7.643627167,93.24241638,-6.374624729,-0.405273438,-0.001464844,-1.665527344, 
486,323588373,10.33249664,29.18256378,-79.27378845,-5.187138557,1.181007385,7.862278938,3.353159904,93.34001923,-9.119263649,-0.393554688,0.002441406,-1.666015625, 
487,323596706,10.3686409,29.90666962,-79.22557068,-5.102407932,1.112865686,8.000936508,3.280640602,83.90425873,-10.02856159,-0.377929688,0.000488281,-1.659179688, 
488,323605039,10.4510107,30.53718185,-79.17383575,-5.10579586,1.124295235,7.898244381,7.489076138,74.42800903,-8.644475937,-0.36328125,0,-1.661621094, 
489,323613372,10.56559372,31.17427444,-79.11032867,-5.385636806,1.191231132,7.866030693,11.63025284,73.85860443,-6.844222069,-0.354492188,-0.000488281,-1.661132813, 
490,323621705,10.73918533,31.88443947,-78.97910309,-5.651753426,1.205598116,7.885677338,13.3267374,85.27320862,-2.809067249,-0.34765625,-0.001953125,-1.656738281, 
491,323630038,10.96039295,32.74472809,-78.77622986,-5.791677475,1.227959752,7.755198479,15.30570316,102.7495117,1.472858191,-0.33203125,-0.005371094,-1.657226563, 
492,323638371,11.25869465,33.73773956,-78.49591827,-5.755763531,1.206676245,7.513688087,18.09249496,121.3874741,4.398226738,-0.317871094,-0.006835938,-1.653808594, 
493,323646704,11.56971455,34.83406448,-78.18994904,-5.980676651,1.39975512,7.412314892,18.38649368,132.4165802,4.443550587,-0.296386719,-0.006347656,-1.651367188, 
494,323655037,11.75390816,35.73210907,-77.99662018,-6.173216343,1.727051735,7.217707157,9.439788818,108.4022446,-3.481689692,-0.274414063,-0.009765625,-1.647460938, 
495,323663370,11.7587738,36.362854,-77.98699951,-5.884254456,1.635254979,7.084156513,1.626588345,71.71499634,-13.7344799,-0.266113281,-0.010742188,-1.646484375, 
496,323671703,11.70374966,36.79594421,-78.06389618,-5.757987499,1.611455798,7.109829903,-0.361917168,48.4068222,-18.06754303,-0.255371094,-0.008300781,-1.643066406, 
497,323680036,11.57640266,37.11347961,-78.18920898,-5.935874939,1.573168993,7.00267601,-4.556073666,32.2951889,-18.68559647,-0.252441406,-0.006347656,-1.638671875, 
498,323688369,11.40010357,37.32314682,-78.33927917,-6.113617897,1.449393034,7.009335041,-9.517526627,20.82274818,-19.30941963,-0.247070313,-0.00390625,-1.639648438, 
499,323696702,11.2050705,37.51852036,-78.49112701,-6.238232136,1.33956337,7.141765594,-10.65892315,17.54304695,-18.0346756,-0.240234375,-0.004394531,-1.640625, 
500,323705035,11.05917263,37.70069504,-78.59239197,-6.309857845,1.253136635,7.275808334,-9.343322754,18.61172295,-13.91129017,-0.243652344,-0.000488281,-1.637695313, 
501,323713368,10.93928814,37.88406754,-78.65809631,-6.439826012,1.183121443,7.252914906,-7.889507294,17.7815609,-9.568469048,-0.239257813,-0.000976563,-1.637207031, 
502,323721701,10.83952808,38.02426529,-78.68263245,-6.398276806,1.20746088,7.204376698,-9.408533096,15.09736538,-5.703561783,-0.237304688,0.000488281,-1.633300781, 
503,323730034,10.73223782,38.16468048,-78.68734741,-6.265595436,1.224973083,7.126717091,-10.8602457,13.81824207,-2.847727299,-0.233886719,0.004394531,-1.635253906, 
504,323738367,10.66660881,38.31256866,-78.67075348,-6.191577435,1.167458177,6.998933315,-8.350819588,16.73655319,-2.003763914,-0.23046875,0.004394531,-1.633789063, 
505,323746700,10.64134407,38.50551224,-78.63912964,-6.145395756,1.189581275,7.037603378,-3.730753183,20.63678169,-0.614780188,-0.229492188,0.006347656,-1.632324219, 
506,323755033,10.6544714,38.62378693,-78.60427856,-6.218099594,1.415141225,7.116122246,-0.272650748,13.55948544,0.346304476,-0.225097656,0.004394531,-1.633300781, 
507,323763366,10.62033939,38.57752228,-78.65103149,-6.305056095,1.433590651,7.073791981,1.061044216,-8.94565773,-2.545863152,-0.227539063,0.009277344,-1.6328125, 
508,323771699,10.55828381,38.31098938,-78.77120972,-6.331587315,1.380811334,7.068451405,2.281334639,-34.51372528,-5.468428135,-0.228515625,0.007324219,-1.632324219, 
509,323780032,10.44548893,37.91101456,-78.9444046,-6.387610912,1.301570892,7.157725811,0.947985232,-52.86111069,-6.620002747,-0.233398438,0.008300781,-1.634277344, 
510,323788365,10.30334949,37.37164688,-79.16004181,-6.285869122,1.255321383,7.143994808,-0.489912659,-68.35987091,-8.742238045,-0.2421875,0.004882813,-1.636230469, 
511,323796698,10.1022768,36.72074509,-79.42284393,-6.267458916,1.193145156,7.16575098,-3.46223402,-84.03752136,-10.25627327,-0.25390625,0.006347656,-1.639648438, 
512,323805031,9.88259697,35.98589706,-79.69864655,-6.079590797,1.005146503,7.266302109,-5.975090981,-92.47847748,-11.18975258,-0.267089844,0.009277344,-1.643066406, 
513,323813364,9.64697361,35.2166481,-79.99088287,-5.976821899,1.021490097,7.367339134,-6.170612335,-98.53721619,-11.79549503,-0.282226563,0.008789063,-1.646972656, 
514,323821697,9.413152695,34.32683563,-80.29083252,-5.634250641,1.091443896,7.392255783,-6.760043144,-111.210228,-11.72428989,-0.297363281,0.010253906,-1.6484375, 
515,323830030,9.196530342,33.37932968,-80.5475235,-5.28364563,1.061196923,7.463562012,-7.107412338,-119.0862198,-6.239053249,-0.312011719,0.013671875,-1.649902344, 
516,323838363,9.010204315,32.33961868,-80.71411133,-5.59833765,1.257140517,7.697795391,-10.73780632,-126.868782,2.917477369,-0.329101563,0.014160156,-1.655273438, 
517,323846696,8.716986656,31.1070385,-80.91516113,-5.670756817,1.352174997,7.614379883,-20.73918915,-152.0506744,3.082071304,-0.352050781,0.015136719,-1.65625, 
518,323855029,8.402721405,29.61040688,-81.1583252,-5.122572422,1.217771173,7.806680202,-22.18800354,-182.3647919,1.595071316,-0.373535156,0.017578125,-1.658691406, 
519,323863362,8.088582039,27.91836548,-81.41468048,-4.695258617,1.241647363,7.882224083,-21.11038589,-207.593689,2.928383112,-0.404296875,0.021972656,-1.663085938, 
520,323871695,7.795576572,26.09469032,-81.67272949,-4.515293598,1.020382881,8.037085533,-20.31847,-221.5827179,2.672526598,-0.4375,0.0234375,-1.666992188, 
521,323880028,7.502188683,24.19889641,-81.97114563,-4.644059658,1.075033903,8.407751083,-18.1819458,-232.5739594,-1.436220646,-0.467285156,0.027832031,-1.664550781, 
522,323888361,7.199340343,22.1223278,-82.34043121,-4.211130619,0.977208376,8.542467117,-18.1237545,-253.3868256,-8.769007683,-0.506835938,0.02734375,-1.666503906, 
523,323896694,6.962430477,20.04930115,-82.68928528,-3.802802324,0.650997639,8.871414185,-11.52282619,-254.4812469,-7.769818306,-0.54296875,0.034179688,-1.663085938, 
524,323905027,6.831568718,18.13741302,-82.95968628,-3.849589348,0.648008645,9.22495842,-4.302359104,-232.4870453,-3.131963253,-0.579101563,0.033691406,-1.659179688, 
525,323913360,6.739633083,16.46599579,-83.14940643,-3.605947256,0.7797153,9.323609352,-2.374540091,-204.5402069,2.366150856,-0.608886719,0.03125,-1.653808594, 
526,323921693,6.676865578,14.96618557,-83.26502991,-3.287388802,0.735972106,9.264677048,-2.985540867,-181.344162,7.51984024,-0.637695313,0.034179688,-1.650390625, 
527,323930026,6.614357471,13.49847889,-83.36214447,-3.061867476,0.88294369,9.33118248,-2.713328362,-179.081665,9.363266945,-0.665527344,0.034667969,-1.647949219, 
528,323938359,6.52896452,11.78747559,-83.53134155,-2.676250219,0.923897803,9.067350388,-5.012088776,-207.282959,3.580698013,-0.688964844,0.035644531,-1.639648438, 
529,323946692,6.477232933,9.957335472,-83.75666046,-1.821432114,0.63989085,9.048873901,0.844948471,-224.0743103,-1.379246712,-0.72265625,0.033691406,-1.634765625, 
530,323955025,6.491491795,8.162635803,-83.97411346,-1.732668877,0.671705127,9.162507057,6.612540722,-217.9455414,-1.520204544,-0.751953125,0.031738281,-1.624023438, 
531,323963358,6.526878834,6.482031822,-84.07641602,-1.39156723,0.698602319,9.294984818,9.394885063,-205.9355011,-1.899917483,-0.782714844,0.029785156,-1.614746094, 
532,323971691,6.58154726,4.852950096,-84.27873993,-1.328437328,0.791607141,9.320425987,9.754546165,-198.0220795,-1.924476862,-0.812988281,0.028320313,-1.60546875, 
533,323980024,6.614505291,3.194658279,-84.41877747,-0.945153058,0.709455252,9.104127884,7.887257576,-203.6240845,-4.865038395,-0.837402344,0.025878906,-1.596191406, 
534,323988357,6.678888798,1.556552529,-84.64308929,-0.333056271,0.774797142,9.115819931,9.641624451,-199.4205933,-4.223833084,-0.8671875,0.021484375,-1.583984375, 
535,323996690,6.720653534,0.049092844,-84.75772858,-0.454626828,0.823798656,9.23534584,7.330183029,-185.1083069,-1.857574821,-0.89453125,0.020507813,-1.5703125, 
536,324005023,6.758897305,-1.502458215,-84.96324158,-0.208564296,0.764168024,9.216080666,5.080371857,-188.8577118,-2.922573805,-0.918945313,0.021484375,-1.560546875, 
537,324013356,6.799853325,-3.026117325,-85.09390259,0.183213368,0.737480998,9.341948509,5.990342617,-187.1210632,-2.151764393,-0.944824219,0.018066406,-1.550292969, 
538,324021689,6.859383583,-4.512496471,-85.28002167,0.297917545,0.829063356,9.541838646,6.484059334,-180.8188629,-1.220604777,-0.967285156,0.018554688,-1.533203125, 
539,324030022,6.922224522,-5.919314384,-85.42158508,0.583136499,0.690553367,9.570095062,7.437430859,-173.1785126,-3.232141018,-0.992675781,0.015625,-1.525390625, 
540,324038355,7.011803627,-7.306838989,-85.64245605,0.815457821,0.712522984,9.587375641,8.510098457,-169.5415039,-6.257127285,-1.010742188,0.014160156,-1.51171875, 
541,324046688,7.08989048,-8.739591599,-85.88540649,1.252707243,0.820131183,9.431951523,7.357162476,-177.0118103,-7.873445034,-1.033203125,0.01171875,-1.496582031, 
542,324055021,7.185322285,-10.25361633,-86.13852692,1.492803454,0.821856678,9.421655655,7.25761652,-185.0761719,-7.482273579,-1.052246094,0.011230469,-1.481445313, 
543,324063354,7.280770779,-11.85353947,-86.41238403,1.684632421,0.81194061,9.241299629,7.222323895,-197.3496857,-8.216331482,-1.078125,0.009277344,-1.462402344, 
544,324071687,7.419541359,-13.47651005,-86.67499542,2.235587597,0.941086411,9.002527237,10.56212616,-198.1737061,-5.911919117,-1.100097656,0.004394531,-1.447265625, 
545,324080020,7.541800976,-15.04769897,-86.91931152,2.048202276,0.937458098,9.135598183,9.524570465,-193.4431152,-4.0855546,-1.123535156,0.001953125,-1.424316406, 
546,324088353,7.706254959,-16.64147568,-87.19876099,2.200562954,0.889653444,9.060699463,11.40067768,-194.9297028,-6.933571339,-1.143066406,-0.001464844,-1.409667969, 
547,324096686,7.898992538,-18.21308708,-87.50445557,2.572756529,0.873281598,9.078583717,14.20962524,-194.3807526,-9.598922729,-1.163085938,-0.002441406,-1.387695313, 
548,324105019,8.121136665,-19.79800797,-87.78878784,3.23148942,1.400195122,9.016901016,16.37102699,-193.9205933,-5.77148962,-1.185058594,-0.002441406,-1.368652344, 
549,324113352,8.266664505,-21.2387886,-87.92301178,3.439322948,1.436505079,8.713850975,13.88215733,-176.0601349,9.125360489,-1.205566406,-0.01171875,-1.352050781, 
550,324121685,8.378723145,-22.61761475,-88.02303314,3.13693285,1.132461786,8.805807114,9.792935371,-166.4219971,12.60739326,-1.217773438,-0.008300781,-1.329101563, 
551,324130018,8.502973557,-24.06411362,-88.1427002,3.786886215,1.103450537,8.337772369,11.24033737,-176.3884888,11.81119156,-1.235839844,-0.008789063,-1.313476563, 
552,324138351,8.661419868,-25.53511238,-88.25705719,4.283723354,1.030068636,8.123856544,14.08913517,-177.4995117,13.69912148,-1.25390625,-0.005371094,-1.29296875, 
553,324146684,8.817327499,-26.90762329,-88.376091,4.089396477,0.894971967,8.312665939,14.38650322,-167.4803772,11.68249512,-1.26953125,-0.011230469,-1.270019531, 
554,324155017,9.019424438,-28.23880768,-88.57561493,4.20284605,0.877817988,8.254751205,14.00294876,-162.2003021,3.46979785,-1.283691406,-0.01171875,-1.252929688, 
555,324163350,9.268102646,-29.5256691,-88.82128906,4.586248875,0.932656169,8.016530037,17.57574463,-159.2705231,-1.669496655,-1.297851563,-0.015136719,-1.233886719, 
556,324171683,9.570858955,-30.77393341,-89.10939789,4.849582672,0.884365261,8.109847069,19.80059242,-153.7654572,-5.304179192,-1.309570313,-0.013671875,-1.215820313, 
557,324180016,9.883641243,-32.01267624,-89.45034027,4.870312691,0.852812886,8.206825256,18.1882515,-155.0989075,-10.07821369,-1.317871094,-0.014648438,-1.197265625, 
558,324188349,10.22222328,-33.21804047,-89.84643555,5.173111916,1.047172546,7.919703484,15.84832382,-150.5162048,-14.49874687,-1.335449219,-0.019042969,-1.174804688, 
559,324196682,10.52071667,-34.29468918,-90.22679901,5.506232262,1.296831846,7.62715435,12.42315197,-136.5830688,-14.88729572,-1.340820313,-0.022949219,-1.159179688, 
560,324205015,10.81086922,-35.31772995,-90.5916214,5.638823032,1.332146406,7.533833981,10.67167473,-128.404541,-12.9281292,-1.350585938,-0.026367188,-1.14453125, 
561,324213348,11.06559467,-36.30599976,-90.91042328,5.678462029,1.39416492,7.544230461,10.133811,-124.949791,-8.814620972,-1.360351563,-0.028320313,-1.132324219, 
562,324221681,11.29865742,-37.28079987,-91.1955719,5.518582344,1.447672963,7.641043186,8.31649971,-121.1810684,-4.520920277,-1.368164063,-0.027832031,-1.114257813, 
563,324230014,11.48036861,-38.22195435,-91.43028259,5.804546833,1.534925461,7.295677662,6.488254547,-117.7014923,-0.410447538,-1.375976563,-0.030273438,-1.095703125, 
564,324238347,11.63906002,-39.10752487,-91.61439514,5.981240749,1.478993177,7.144295216,6.087145329,-108.6835175,4.072462559,-1.3828125,-0.034667969,-1.081054688, 
565,324246680,11.7584877,-39.9801445,-91.76251221,6.074369431,1.403758287,7.002309799,4.907085419,-107.8948593,6.910651207,-1.387695313,-0.034667969,-1.063476563, 
566,324255013,11.87945938,-40.86727905,-91.88704681,6.493895054,1.46194768,6.917781353,5.675314903,-107.6443863,10.34568214,-1.396484375,-0.033691406,-1.051269531, 
567,324263346,11.90111923,-41.63571167,-91.90737915,6.55429554,1.429226995,6.62925148,2.849132061,-93.16326141,16.28861618,-1.400390625,-0.030761719,-1.037109375, 
568,324271679,11.87916088,-42.29754639,-91.90711212,6.34599638,1.31068182,6.721498966,-1.759451747,-78.83035278,16.06445503,-1.40625,-0.027832031,-1.02734375, 
569,324280012,11.84160233,-42.91933441,-91.8976059,6.570255756,1.270398378,6.592021942,-1.914340854,-75.34809113,15.22196484,-1.408691406,-0.025390625,-1.017578125, 
570,324288345,11.83562088,-43.55196381,-91.90156555,6.587030888,1.215942025,6.496594429,-0.185909092,-75.49425507,14.9174881,-1.413085938,-0.024902344,-1.005859375, 
571,324296678,11.83398628,-44.15805435,-91.90375519,6.538869858,1.117957711,6.333716869,1.417460203,-73.69023132,13.77794933,-1.416015625,-0.022460938,-0.998535156, 
572,324305011,11.86267185,-44.72595596,-91.93169403,6.654651165,1.099175572,6.242822647,1.952055931,-68.31308746,11.32854462,-1.41796875,-0.021972656,-0.988769531, 
573,324313344,11.88679504,-45.20990372,-91.97140503,6.810603142,1.026278257,6.338795185,1.308520317,-59.95963669,7.691198826,-1.425292969,-0.017578125,-0.978027344, 
574,324321677,11.92968941,-45.61077499,-92.03295135,7.151974201,1.186866999,6.425220966,0.747642696,-49.26570892,4.532461643,-1.423828125,-0.020996094,-0.970703125, 
575,324330010,11.90623951,-45.87400436,-92.02224731,7.332542896,1.262597203,6.360456467,-0.12594533,-33.11926651,6.419714928,-1.428222656,-0.016601563,-0.96484375, 
576,324338343,11.82576561,-45.9737587,-91.93984222,7.356911659,1.222228408,6.30668354,-0.799753368,-12.64206123,8.211681366,-1.430175781,-0.015136719,-0.96484375, 
577,324346676,11.70880032,-45.90836334,-91.81027222,7.389764309,1.117762923,6.218101501,-1.990200996,8.752321243,8.665975571,-1.427246094,-0.017578125,-0.966796875, 
578,324355009,11.55405712,-45.67142105,-91.63838196,7.415732384,1.001660109,6.151926517,-2.920972824,29.62151718,8.034154892,-1.426269531,-0.012695313,-0.969726563, 
579,324363342,11.35665798,-45.27428436,-91.41215515,7.307072639,0.996850491,6.222878933,-2.577438116,48.1943512,8.218306541,-1.423339844,-0.01171875,-0.974609375, 
580,324371675,11.17399406,-44.75626755,-91.17668152,7.216951847,0.919930339,6.419581413,-1.063890934,63.73721695,7.128095627,-1.423828125,-0.013183594,-0.983886719, 
581,324380008,11.00579357,-44.10383606,-90.93990326,7.219512463,0.951667964,6.54892683,1.472992897,78.50222015,3.884381056,-1.418457031,-0.01171875,-0.993164063, 
582,324388341,10.86257172,-43.36323929,-90.71216583,6.857069969,1.119138837,6.536903381,2.578052759,89.87210083,2.211971521,-1.415039063,-0.01171875,-1.005859375, 
583,324396674,10.67894936,-42.5230217,-90.44973755,6.813681126,1.263897419,6.303553104,1.209476709,101.1777191,2.853054523,-1.406738281,-0.0078125,-1.016113281, 
584,324405007,10.48601723,-41.54485703,-90.18260193,6.596533775,0.995233834,6.41562748,-0.813415647,118.6233673,1.528663754,-1.402832031,-0.008789063,-1.033691406, 
585,324413340,10.28938007,-40.42017365,-89.92128754,6.551214218,1.047346711,6.858006477,-1.229118705,134.8889313,-1.968331814,-1.396972656,-0.008789063,-1.053222656, 
586,324421673,10.11550903,-39.20802307,-89.68363953,6.460688114,1.019152641,7.228269577,-1.729300618,145.9058533,-4.523532867,-1.387207031,-0.0078125,-1.067871094, 
587,324430006,9.909639359,-37.94154739,-89.46736908,5.829593658,1.172689676,7.607845783,-6.693827152,151.1111145,-7.322388172,-1.375976563,-0.01171875,-1.090332031, 
588,324438339,9.759052277,-36.7509079,-89.32064056,5.593697548,1.267848849,7.247201443,-6.51107645,142.0317841,-10.92963696,-1.368652344,-0.0078125,-1.109375, 
589,324446672,9.664654732,-35.61219025,-89.18206787,6.023298264,1.502516508,7.179742813,0.342813641,134.8869324,-10.65894699,-1.360351563,-0.010253906,-1.128417969, 
590,324455005,9.504141808,-34.33815384,-88.97472382,5.844866753,1.366948366,7.316111565,-4.117572784,153.0085754,-5.668982506,-1.350097656,-0.009765625,-1.146972656, 
591,324463338,9.305604935,-32.87822342,-88.76148224,5.230525017,0.966571748,7.778303146,-7.80338192,174.2944641,-8.387376785,-1.340820313,-0.012207031,-1.171386719, 
592,324471671,9.107836723,-31.27810287,-88.56385803,5.166696548,0.9843961,8.145267487,-10.25450516,191.6183167,-11.20351791,-1.323242188,-0.010742188,-1.190429688, 
593,324480004,8.889989853,-29.54597473,-88.35927582,4.797809124,0.99805975,8.399785042,-11.83642769,206.6193695,-12.33264542,-1.3046875,-0.010742188,-1.215820313, 
594,324488337,8.685730934,-27.7688427,-88.15790558,4.558133602,1.166695595,8.315283775,-12.03540993,212.8563385,-11.94298935,-1.290527344,-0.008789063,-1.240722656, 
595,324496670,8.472323418,-25.94542694,-87.92261505,4.320162296,1.251258135,8.120040894,-10.94224739,218.1401978,-8.407049179,-1.274902344,-0.010253906,-1.268066406, 
596,324505003,8.260145187,-24.0946331,-87.67879486,3.841130495,1.15754509,8.232260704,-12.19943905,222.4518585,-6.40040493,-1.256835938,-0.008300781,-1.292480469, 
597,324513336,8.070850372,-22.30021095,-87.43524933,3.439371586,1.073108554,8.383638382,-9.279725075,215.0032043,-4.599198341,-1.232421875,-0.005859375,-1.317382813, 
598,324521669,7.941454411,-20.61835289,-87.21022034,3.263687611,1.005385876,8.609164238,-4.758272171,202.2161865,-3.536864758,-1.211425781,-0.006835938,-1.339355469, 
599,324530002,7.836158276,-18.95433807,-86.96633148,3.228863239,1.052531958,8.626078606,-0.800652325,199.6156769,-0.673908532,-1.192382813,-0.0078125,-1.36328125, 
600,324538335,7.744274139,-17.23990059,-86.69223022,2.669380665,1.010022998,8.936905861,0.084209979,206.9300842,2.774497747,-1.170410156,-0.004882813,-1.383789063, 
601,324546668,7.643549442,-15.62356758,-86.41963959,2.181620359,1.009270549,9.151877403,-0.898244381,194.4683075,4.641595364,-1.149902344,-0.00390625,-1.40625, 
602,324555001,7.604120731,-14.28723621,-86.19927979,2.305734873,1.03802681,9.006964684,2.987981319,161.1862946,3.733936071,-1.129882813,0,-1.421386719, 
603,324563334,7.600217819,-13.16450882,-86.02735901,2.51070261,0.947305143,8.937583923,6.368068695,134.2301941,1.610635757,-1.111816406,-0.001464844,-1.435058594, 
604,324571667,7.626969337,-12.15272713,-85.85427856,2.38842082,0.991808712,9.14877224,8.657277107,121.8803711,3.684643745,-1.098144531,-0.001464844,-1.446289063, 
605,324580000,7.645724773,-11.12487507,-85.64407349,1.930480599,0.99109447,9.326299667,9.282097816,123.5840378,7.704443932,-1.082519531,-0.001464844,-1.456054688, 
606,324588333,7.672401905,-10.0640974,-85.39867401,1.278556108,1.044833183,9.689734459,9.515125275,128.8657837,11.40786552,-1.069824219,-0.000976563,-1.46875, 
607,324596666,7.67443037,-9.011566162,-85.14805603,0.810398877,1.234357119,9.73771286,7.170104504,127.2019348,12.1752243,-1.053710938,0.002929688,-1.484375, 
608,324604999,7.678161621,-7.976009846,-84.91213226,0.860548437,1.215985656,9.403017044,5.529537201,125.7418289,10.83583069,-1.037597656,0.000488281,-1.493652344, 
609,324613332,7.667368889,-6.855148315,-84.65306854,0.877246201,1.253577352,9.236940384,4.65475893,135.4464417,12.28480148,-1.018066406,-0.000488281,-1.505859375, 
610,324621665,7.641783714,-5.630984783,-84.34690857,0.708105922,1.224287152,9.04339695,1.828649521,149.3035278,16.31447983,-1.000488281,0.003417969,-1.517578125, 
611,324629998,7.578487873,-4.297753334,-83.94530487,0.409356385,1.217285156,9.067613602,-1.81983161,162.0810852,19.14062119,-0.981933594,0.001953125,-1.52734375, 
612,324638331,7.486134052,-3.031806469,-83.61191559,0.267532915,1.230769873,9.051709175,-7.620346546,154.6839752,19.35523605,-0.965332031,0.007324219,-1.540039063, 
613,324646664,7.366503239,-1.864314437,-83.25032043,0.445256591,0.983908713,9.077160835,-10.60909271,141.4020538,15.41483212,-0.941894531,0.013183594,-1.548828125, 
614,324654997,7.293830872,-0.749242544,-83.01717377,0.331804037,0.706831157,9.208554268,-7.175457954,135.1268768,10.34492493,-0.922851563,0.013183594,-1.556640625, 
615,324663330,7.25428009,0.373139322,-82.73195648,0.081931882,0.721441031,9.453638077,-2.342280149,134.6887512,6.27145195,-0.903808594,0.017578125,-1.563964844, 
616,324671663,7.253421307,1.543291688,-82.54715729,-0.323084116,0.700067282,9.54268074,0.435821027,140.9335175,3.923849344,-0.88671875,0.015625,-1.574707031, 
617,324679996,7.269653797,2.756501675,-82.27136993,-0.691053689,0.825417638,9.621131897,3.52989912,145.2259674,2.628210068,-0.870605469,0.017578125,-1.583496094, 
618,324688329,7.33911705,4.024698734,-82.09236145,-0.950527191,0.77668643,9.47734642,7.978691578,152.5126801,1.557480097,-0.851074219,0.017089844,-1.594238281, 
619,324696662,7.454731464,5.421853065,-81.79747772,-1.094572306,0.832849979,9.33601284,14.38830757,167.3257294,1.072776318,-0.824707031,0.01953125,-1.604492188, 
620,324704995,7.619325638,6.989331722,-81.55143738,-1.284107804,0.923236191,9.232671738,17.47510147,189.1556396,4.044565201,-0.799316406,0.015136719,-1.612304688, 
621,324713328,7.818362236,8.79737854,-81.11389923,-1.63812542,0.893384397,9.058238029,20.71042442,218.4746399,10.54823589,-0.770507813,0.015625,-1.621582031, 
622,324721661,8.074105263,10.86745739,-80.66384888,-1.951617956,0.884562492,9.080458641,22.38265991,252.2135925,17.95921516,-0.737792969,0.01171875,-1.6328125, 
623,324729994,8.36871624,13.22012901,-79.99570465,-2.193897963,0.897630394,9.124465942,23.19755173,287.1731262,26.72579002,-0.698242188,0.012207031,-1.640625, 
624,324738327,8.782852173,15.75112629,-79.30152893,-2.637422085,0.84460175,9.288991928,29.77233315,311.1802979,34.04190445,-0.65234375,0.011230469,-1.649902344, 
625,324746660,9.236877441,18.22082901,-78.6144104,-3.539310694,1.431511283,9.287338257,32.23338699,303.0063477,31.4677124,-0.606445313,0.005859375,-1.656738281, 
626,324754993,9.525994301,20.15063286,-78.16509247,-3.90951395,1.795262218,8.649224281,17.89588356,235.6047516,12.05155277,-0.563476563,0.004394531,-1.661132813, 
627,324763326,9.595746994,21.34683037,-78.08058929,-3.900508165,2.030881643,8.504623413,6.598498344,141.0552063,-14.44047451,-0.540039063,0.001464844,-1.662597656, 
628,324771659,9.508050919,21.86597252,-78.26808167,-3.507677794,1.87989819,8.283761024,-1.309801459,56.77920532,-31.4143734,-0.52734375,0.001464844,-1.660644531, 
629,324779992,9.395213127,22.07074165,-78.56010437,-3.904148579,1.705283523,8.247885704,1.347208142,16.80275536,-36.03490829,-0.520996094,0.000976563,-1.662109375, 
630,324788325,9.297841072,22.21093369,-78.82090759,-4.224178791,1.477797985,8.141336441,1.040476918,10.70568562,-31.78413582,-0.519042969,0.00390625,-1.661132813, 
631,324796658,9.200974464,22.41014099,-79.03656006,-4.333648205,1.471449256,8.314147949,-0.047629718,17.64525414,-27.42758179,-0.517578125,0.006347656,-1.661621094, 
632,324804991,9.091944695,22.64050484,-79.20265961,-4.248485088,1.401222229,8.443751335,-4.514705181,23.17788315,-23.01955032,-0.511230469,0,-1.663085938, 
633,324813324,8.963920593,22.96501541,-79.3205719,-4.264185905,1.220346451,8.637885094,-8.138177872,34.27745056,-18.94980812,-0.508789063,0.007324219,-1.664550781, 
634,324821657,8.872024536,23.4850235,-79.38657379,-4.230514526,1.041278481,8.784755707,-6.971744537,59.33073425,-17.30825043,-0.501953125,0.005371094,-1.663574219, 
635,324829990,8.804833412,24.26412582,-79.38943481,-4.247927666,0.880452812,8.567631721,-6.196602345,90.18238831,-14.61911201,-0.490722656,0.010253906,-1.663574219, 
636,324838323,8.790192604,25.26119804,-79.32532501,-4.293404102,0.754807115,8.501092911,-4.04237318,118.1225739,-11.84277248,-0.474121094,0.008300781,-1.662109375, 
637,324846656,8.828886032,26.4470253,-79.19252777,-4.259937286,0.703128755,8.527395248,-0.580825806,140.6594849,-7.535186768,-0.453125,0.010253906,-1.660644531, 
638,324854989,8.990161896,27.80285835,-78.96616364,-4.179127216,0.610410154,8.385955811,7.905993462,163.2928162,-1.760392427,-0.432128906,0.01171875,-1.661132813, 
639,324863322,9.282265663,29.35461998,-78.6223526,-4.648163319,0.710626364,8.290818214,17.03487015,187.4501343,6.337723255,-0.407226563,0.008789063,-1.66015625, 
640,324871655,9.628510475,30.96462631,-78.22223663,-5.33160162,1.094256639,8.15784359,18.36419296,196.2072601,8.769462585,-0.377441406,0.004394531,-1.655761719, 
641,324879988,9.858736038,32.36443329,-77.92928314,-5.810400009,1.455780864,7.820928097,10.88624573,168.4803467,1.246804237,-0.3515625,0.002929688,-1.653808594, 
642,324888321,9.931475639,33.42263031,-77.81790161,-5.723312855,1.511951804,7.502082348,2.410665989,125.8319778,-11.209445,-0.330078125,0.003417969,-1.649902344, 
643,324896654,9.883672714,34.23390579,-77.82871246,-5.583261013,1.592272758,7.519821167,-3.326406717,93.55365753,-17.60279465,-0.312011719,0.006347656,-1.649902344, 
644,324904987,9.739609718,34.82632446,-77.93615723,-5.646621704,1.690230608,7.325823784,-9.036167145,67.04454041,-23.02564812,-0.30078125,0.004882813,-1.646484375, 
645,324913320,9.536973,35.27393723,-78.10940552,-5.68260622,1.416084766,7.178415775,-10.7170372,47.92730331,-25.56354713,-0.292480469,0.009277344,-1.64453125, 
646,324921653,9.330115318,35.64157486,-78.29543304,-5.755386353,1.288711667,7.196810722,-10.92857933,39.34052277,-25.61442757,-0.286621094,0.011230469,-1.64453125, 
647,324929986,9.137263298,36.04290771,-78.44943237,-5.890852928,1.107425451,7.346032143,-10.68373394,42.94156265,-22.31682205,-0.278320313,0.018554688,-1.640136719, 
648,324938319,8.980051994,36.4834404,-78.56718445,-6.048340321,0.970202684,7.406366348,-9.559729576,49.21085358,-20.01953316,-0.277832031,0.017089844,-1.642089844, 
649,324946652,8.830729485,36.96568298,-78.67995453,-6.095183849,0.958231449,7.317996025,-8.201663017,53.29195023,-19.47685242,-0.267578125,0.020996094,-1.641601563, 
650,324954985,8.714565277,37.50016022,-78.76802063,-6.18431282,0.927329898,7.20278883,-6.596778393,60.90316391,-18.5401516,-0.258789063,0.020996094,-1.634765625, 
651,324963318,8.628606796,38.13590622,-78.81603241,-6.353782654,0.886086583,7.241414547,-5.159897327,72.51922607,-15.79807758,-0.248535156,0.020996094,-1.635253906, 
652,324971651,8.609306335,38.85926437,-78.77942657,-6.326608181,0.850879431,7.166325092,-4.098957062,85.13700867,-10.05258846,-0.237792969,0.020019531,-1.630859375, 
653,324979984,8.66337204,39.69182968,-78.6427536,-6.394283772,0.845254242,7.221656322,-2.287665606,98.45598602,-2.225627422,-0.224609375,0.023925781,-1.626464844, 
654,324988317,8.715419769,40.58360672,-78.49394226,-6.491934299,1.17289412,7.164432526,-4.311623096,106.6435852,-3.117193699,-0.210449219,0.023925781,-1.623046875, 
655,324996650,8.639828682,41.36035919,-78.48332214,-6.770638943,1.345762134,6.72480011,-8.311278343,90.0515976,-12.87428379,-0.192871094,0.026367188,-1.618164063, 
656,325004983,8.39931488,41.85861969,-78.65573883,-6.925403118,1.37446332,6.467569828,-14.16660404,55.63310242,-24.60308266,-0.1875,0.030273438,-1.613769531, 
657,325013316,7.985265732,42.06378555,-78.98415375,-6.796552658,1.082826376,6.475135326,-21.76092911,17.94293022,-32.28329849,-0.183105469,0.032714844,-1.615722656, 
658,325021649,7.584552765,42.07391357,-79.33457184,-6.632200241,0.757908046,6.723416805,-18.95290184,-4.236458302,-31.53642082,-0.177734375,0.0390625,-1.614746094, 
659,325029982,7.256121635,41.98386765,-79.6390152,-6.664193153,0.731154621,6.84021616,-13.3867445,-16.50130844,-25.30746841,-0.182128906,0.042480469,-1.612304688, 
660,325038315,7.019659042,41.80641556,-79.84819031,-6.718129158,0.618661642,6.877271175,-10.65313625,-24.66567039,-16.33888626,-0.183105469,0.046875,-1.616210938, 
661,325046648,6.842760086,41.60461426,-79.98812866,-6.727917671,0.576996088,6.892682552,-8.48045826,-27.83822823,-9.323550224,-0.189941406,0.045898438,-1.615722656, 
662,325054981,6.733423233,41.38298416,-80.07225037,-6.616253853,0.600310028,6.891970158,-5.471601486,-28.52043533,-4.808423042,-0.190917969,0.048339844,-1.618652344, 
663,325063314,6.660387516,41.14812851,-80.14144135,-6.611400127,0.619341195,6.854558945,-1.700312614,-31.01496124,-2.719965458,-0.196289063,0.05078125,-1.618652344, 
664,325071647,6.641083717,40.87080383,-80.18187714,-6.608242035,0.605235815,6.946809769,1.829498887,-34.6962738,-0.225418329,-0.201660156,0.048828125,-1.622558594, 
665,325079980,6.671457767,40.5844574,-80.16653442,-6.478839397,0.673929095,6.983033657,4.040420055,-36.27248001,5.553684711,-0.208007813,0.047851563,-1.618652344, 
666,325088313,6.723009586,40.23075867,-80.09896088,-6.486105442,0.812129378,6.924153328,1.896404147,-42.6571312,10.63891506,-0.210449219,0.049316406,-1.624023438, 
667,325096646,6.742902279,39.7632103,-80.04753876,-6.34193182,0.734835744,6.904007435,0.021413565,-57.47671127,11.44813728,-0.21875,0.049804688,-1.627441406, 
668,325104979,6.678689957,39.08378601,-80.09304047,-6.548522949,0.98570472,6.83108902,-3.273173332,-82.68812561,4.898367405,-0.227539063,0.047851563,-1.628417969, 
669,325113312,6.461248398,38.09100342,-80.29871368,-6.302461147,0.824077129,6.837023735,-9.086527824,-122.8842163,-5.385196209,-0.239257813,0.048339844,-1.62890625, 
670,325121645,6.237555504,36.7989769,-80.55360413,-5.951245308,0.841947556,7.211291313,-7.277355671,-158.0082092,-7.432146549,-0.261230469,0.047851563,-1.635253906, 
671,325129978,6.021813869,35.3181839,-80.7756424,-5.735332966,0.761003554,7.340805531,-8.578342438,-181.3294373,-2.331898212,-0.28515625,0.047851563,-1.64453125, 
672,325138311,5.860336304,33.75764847,-80.92365265,-5.847563267,0.6593256,7.572027683,-8.338478088,-189.0054779,4.389368057,-0.315917969,0.053222656,-1.647460938, 
673,325146644,5.728774071,32.19623566,-81.0279541,-5.682961941,0.670791328,7.847753048,-7.328914165,-189.8291321,8.536625862,-0.339355469,0.05078125,-1.650878906, 
674,325154977,5.645196438,30.67340279,-81.06674957,-5.312397003,0.626924157,8.043047905,-6.628712654,-183.4679108,13.71424294,-0.369140625,0.055175781,-1.65234375, 
675,325163310,5.583729744,29.21491241,-81.02873993,-5.35268116,0.562023699,8.219961166,-7.988366604,-176.1663513,21.0803318,-0.394042969,0.055664063,-1.659179688, 
676,325171643,5.511497974,27.7306881,-80.97077179,-5.283215523,0.677992404,8.440555573,-11.01283169,-177.9152679,22.86621857,-0.418457031,0.056152344,-1.657226563, 
677,325179976,5.347924232,26.04730225,-80.98718262,-4.959938526,0.970188022,8.40120697,-17.0540657,-203.6546631,17.34939384,-0.4453125,0.055664063,-1.657714844, 
678,325188309,5.130059719,24.03726768,-81.08492279,-4.563413143,0.996522307,8.410624504,-20.20483208,-242.406662,11.00350189,-0.477539063,0.061035156,-1.66015625, 
679,325196642,4.895488262,21.77406883,-81.26213837,-4.123442173,0.865017891,8.630932808,-18.16917229,-274.6723328,4.136872768,-0.519042969,0.063476563,-1.660644531, 
680,325204975,4.704700947,19.44952202,-81.46646118,-3.790552378,0.753828883,8.749126434,-13.28655624,-281.1299133,0.032378647,-0.55859375,0.065917969,-1.654296875, 
681,325213308,4.485100746,17.13501167,-81.74185944,-3.342916012,0.539156556,8.429826736,-14.26786137,-281.7906494,-9.175316811,-0.598632813,0.064941406,-1.65234375, 
682,325221641,4.341093063,14.86266613,-82.06213379,-2.736879826,0.305188149,8.716218948,-5.708862782,-275.9589233,-16.29455566,-0.640625,0.064453125,-1.643554688, 
683,325229974,4.237715721,12.7212677,-82.3595047,-2.161116123,0.139361605,9.004626274,-2.169362068,-261.276947,-15.55145454,-0.678710938,0.064941406,-1.638671875, 
684,325238307,4.199416161,10.81703949,-82.58657837,-1.970535994,-0.011259853,9.229477882,1.940267682,-231.0958405,-10.23507404,-0.716796875,0.064453125,-1.631347656, 
685,325246640,4.185349941,9.180585861,-82.73327637,-2.014989376,0.103882663,9.600621223,3.12768507,-199.5355377,-3.191171885,-0.743652344,0.062988281,-1.622070313, 
686,325254973,4.175031662,7.687050343,-82.8109436,-1.677014232,0.259487063,9.51431942,1.108603239,-180.6636658,3.432290792,-0.772949219,0.064453125,-1.616210938, 
687,325263306,4.171544075,6.346039772,-82.78371429,-1.150805235,0.347005337,9.43786335,1.708458185,-163.0415497,9.004151344,-0.795898438,0.062011719,-1.608398438, 
688,325271639,4.190662861,5.104158878,-82.75919342,-0.943796754,0.585627139,9.440514565,2.981863737,-149.6616974,13.34638405,-0.818359375,0.063964844,-1.600585938, 
689,325279972,4.218848705,3.835304499,-82.68026733,-0.833153069,0.58352077,9.269710541,4.93440485,-153.9478302,14.50782394,-0.83984375,0.063964844,-1.595214844, 
690,325288305,4.287277222,2.535160303,-82.65898132,-0.550936699,0.522405744,9.241810799,9.054011345,-156.6483459,13.66347027,-0.859375,0.060058594,-1.587402344, 
691,325296638,4.358458519,1.172069192,-82.59199524,-0.64671123,0.614935398,9.193887711,10.33383942,-165.3470306,13.42683411,-0.879882813,0.061035156,-1.576660156, 
692,325304971,4.456849575,-0.35882315,-82.61767578,-0.33680293,0.600251675,9.303739548,12.81366444,-184.6523438,10.58710575,-0.901855469,0.059570313,-1.56640625, 
693,325313304,4.574880123,-1.952705383,-82.6178894,-0.07122305,0.518020213,9.343153,15.86931419,-193.529541,8.27208519,-0.926757813,0.056152344,-1.55078125, 
694,325321637,4.719144344,-3.553228617,-82.67334747,0.119292066,0.600438535,9.456222534,17.98067665,-193.2256165,8.467054367,-0.951660156,0.056152344,-1.541503906, 
695,325329970,4.864149094,-5.157177925,-82.67192078,0.25901556,0.550141275,9.417742729,18.74457932,-194.6951141,9.207590103,-0.974609375,0.053710938,-1.529785156, 
696,325338303,5.02173233,-6.736461639,-82.7265625,0.776534021,0.451709658,9.462963104,19.22071075,-190.6302032,9.352508545,-1.002441406,0.052246094,-1.512695313, 
697,325346636,5.16495657,-8.210426331,-82.70918274,0.976079106,0.497088283,9.586244583,18.41532898,-178.9510803,10.5896759,-1.025878906,0.051269531,-1.5, 
698,325354969,5.295771599,-9.658017159,-82.76051331,1.127063394,0.548270345,9.40276432,15.73362446,-174.8030701,9.290188789,-1.045410156,0.045410156,-1.487304688, 
699,325363302,5.425140381,-11.04732418,-82.77640533,1.598988891,0.603653133,9.115615845,15.93470192,-169.0876007,7.250921249,-1.065917969,0.04296875,-1.473144531, 
700,325371635,5.551091671,-12.37897015,-82.83507538,1.877779126,0.815276921,8.910154343,14.67981815,-160.9870758,7.922293663,-1.083496094,0.044433594,-1.455566406, 
701,325379968,5.66157341,-13.65931988,-82.89524078,1.948520064,0.784840524,8.896274567,13.41137791,-156.0094147,7.409986019,-1.103027344,0.044433594,-1.443359375, 
702,325388301,5.790879726,-14.88823795,-82.97109985,2.27660656,0.762399971,8.91042614,14.26980495,-148.8799133,5.425880909,-1.125,0.041992188,-1.426757813, 
703,325396634,5.924128532,-16.08159256,-83.06156158,2.419504881,0.748262525,8.954340935,14.85911274,-145.9258728,3.585049391,-1.137207031,0.038085938,-1.416992188, 
704,325404967,6.090795517,-17.31838417,-83.18671417,2.546984673,0.687018394,8.897385597,16.68325806,-150.373703,0.718224883,-1.151855469,0.040039063,-1.3984375, 
705,325413300,6.272400856,-18.53954315,-83.36734009,2.865571022,0.410829276,8.857461929,16.88059616,-150.297226,-5.373615742,-1.166015625,0.032714844,-1.387207031, 
706,325421633,6.493897438,-19.81338692,-83.59999084,2.917002916,0.533933043,9.151547432,18.40844345,-156.1147003,-9.72299099,-1.185058594,0.032226563,-1.368652344, 
707,325429966,6.732927322,-21.1651001,-83.8529892,3.205378532,0.758155584,8.96463871,19.82312965,-166.7803192,-10.25137901,-1.199707031,0.02734375,-1.352539063, 
708,325438299,6.956219673,-22.50896072,-84.08278656,3.422003984,0.783394933,8.922922134,17.53855324,-164.4364624,-6.701767445,-1.22265625,0.025878906,-1.334960938, 
709,325446632,7.151484489,-23.80203629,-84.29346466,3.587149382,0.912457347,8.83937645,15.25793552,-159.2226715,-4.733924866,-1.232910156,0.020996094,-1.317382813, 
710,325454965,7.279263973,-25.00117683,-84.47128296,3.927513838,1.102441549,8.710817337,7.520481586,-146.4708557,-1.710563779,-1.248046875,0.021972656,-1.301269531, 
711,325463298,7.367612362,-26.17466736,-84.63845825,3.914701223,0.843597114,8.474920273,3.697443962,-144.3453979,-0.744516969,-1.260742188,0.020507813,-1.282714844, 
712,325471631,7.488352299,-27.40582085,-84.82479095,4.441663265,0.906182885,8.269832611,5.415661335,-150.3533783,-1.19976902,-1.273925781,0.019042969,-1.267578125, 
713,325479964,7.604514122,-28.57251167,-84.99745941,4.722866058,0.985651255,8.159815788,5.960451603,-143.5520935,-0.527662873,-1.287597656,0.018066406,-1.251464844, 
714,325488297,7.701771736,-29.63467789,-85.13939667,4.722248077,1.015912175,8.226223946,4.392842293,-129.5822296,1.717216492,-1.296875,0.017578125,-1.231445313, 
715,325496630,7.791182995,-30.71545601,-85.28873444,4.565774441,1.037366033,8.159871101,3.453812838,-132.9305725,1.330769897,-1.307128906,0.018554688,-1.21875, 
716,325504963,7.938651085,-31.8913002,-85.47645569,5.007069588,0.934005678,7.973271847,6.999127865,-143.6848602,-0.265547633,-1.3203125,0.015136719,-1.199707031, 
717,325513296,8.084823608,-32.99722672,-85.66001892,5.181306839,0.968607962,7.895218849,7.438328743,-136.3270264,-0.733347535,-1.328125,0.015625,-1.183105469, 
718,325521629,8.200661659,-33.99366379,-85.81070709,5.432019711,1.207248688,7.768722534,4.930484772,-121.7805252,1.500360727,-1.339355469,0.014160156,-1.168457031, 
719,325529962,8.231791496,-34.8704567,-85.84223938,5.795731544,1.379860878,7.388090611,3.297699451,-106.8809052,11.10328007,-1.345703125,0.016601563,-1.153808594, 
720,325538295,8.200863838,-35.67327499,-85.81813049,5.48987484,0.984498322,7.457874298,-1.03100729,-96.29363251,15.59995556,-1.355957031,0.016601563,-1.139160156, 
721,325546628,8.156982422,-36.43153763,-85.79984283,5.868531704,0.766329885,7.075141907,-2.301379919,-92.08100891,13.84917259,-1.360351563,0.018066406,-1.129882813, 
722,325554961,8.119104385,-37.09625626,-85.79151917,6.129310608,0.732190371,6.977977276,-2.934998035,-80.13179016,11.57912064,-1.36328125,0.019042969,-1.118164063, 
723,325563294,8.075433731,-37.64172363,-85.7901001,6.088864326,0.759230196,7.055641174,-3.479170084,-67.022995,8.479255676,-1.370117188,0.024414063,-1.109375, 
724,325571627,8.072768211,-38.17768478,-85.81289673,6.258694649,0.800124407,7.229576588,-0.988431394,-65.26159668,6.391838551,-1.372070313,0.022460938,-1.099609375, 
725,325579960,8.093512535,-38.69272232,-85.83342743,6.230167389,0.781149089,7.282798767,2.612366676,-63.66043091,5.892408848,-1.377929688,0.021972656,-1.09375, 
726,325588293,8.139866829,-39.16840363,-85.86071777,6.037940979,0.845020413,7.199282646,4.518684387,-58.15111923,5.031431675,-1.380859375,0.024902344,-1.0859375, 
727,325596626,8.181976318,-39.59122086,-85.88043976,6.129984856,0.93641597,6.970923424,5.199791908,-52.64960098,4.491762161,-1.385742188,0.024902344,-1.077636719, 
728,325604959,8.241197586,-39.9758606,-85.9045639,6.153333664,0.877564371,6.966030121,6.270261765,-47.28565979,3.883651257,-1.384765625,0.021484375,-1.071289063, 
729,325613292,8.294156075,-40.30082321,-85.92999268,6.147143364,0.786033809,7.186734676,6.026309013,-41.06998062,2.393026352,-1.389160156,0.023925781,-1.064941406, 
730,325621625,8.367794037,-40.59155273,-85.97566986,6.325638294,0.770195425,7.179178238,6.297792912,-36.40745163,0.42218715,-1.389160156,0.024414063,-1.058105469, 
