PacketCounter,SampleTimeFine,Quat_W,Quat_X,Quat_Y,Quat_Z,Acc_X,Acc_Y,Acc_Z,Gyr_X,Gyr_Y,Gyr_Z,Mag_X,Mag_Y,Mag_Z
1,4221647806,-0.342862,-0.608143,0.275364,-0.6609,9.773008347,0.523981512,1.099270344,-1.023608923,0.1723838,0.200047165,-2.039550781,0.824707031,-0.395996094
2,4221656139,-0.342886,-0.608126,0.2754,-0.660888,9.758072853,0.519682646,1.087711334,-0.858499467,0.218182042,0.103302211,-2.039550781,0.827148438,-0.395996094
3,4221664472,-0.342907,-0.608117,0.275434,-0.660872,9.773859024,0.566576719,1.073491573,-0.781733632,0.112369649,0.094900735,-2.03515625,0.826660156,-0.396972656
4,4221672805,-0.342927,-0.608099,0.275484,-0.660857,9.764195442,0.537128448,1.088834405,-0.952017188,0.116826534,0.248739854,-2.040039063,0.828613281,-0.392578125
5,4221681138,-0.342939,-0.608093,0.275538,-0.660833,9.777814865,0.548730373,1.089199424,-0.909804821,-0.104518883,0.278734088,-2.040039063,0.825683594,-0.395996094
6,4221689471,-0.34295,-0.60808,0.27559,-0.660818,9.785225868,0.552535653,1.070530057,-0.882102966,0.036948532,0.333843112,-2.0390625,0.826171875,-0.395996094
7,4221697804,-0.342962,-0.60807,0.275641,-0.6608,9.781212807,0.525497854,1.091344833,-0.879515946,-0.02256614,0.305283248,-2.0390625,0.827148438,-0.394042969
8,4221706137,-0.342979,-0.608069,0.275686,-0.660773,9.785375595,0.531327486,1.066038251,-0.861547589,-0.116864935,0.115340896,-2.041015625,0.827148438,-0.396972656
9,4221714470,-0.34299,-0.608069,0.275725,-0.66075,9.777328491,0.536827981,1.064629436,-0.729788065,-0.090302996,0.154479459,-2.040039063,0.826660156,-0.395507813
10,4221722803,-0.343003,-0.608067,0.275766,-0.660729,9.769739151,0.56629771,1.10261786,-0.765135646,-0.049192142,0.148767486,-2.036621094,0.828125,-0.394042969
11,4221731136,-0.34302,-0.608065,0.275813,-0.660703,9.788128853,0.509990633,1.056367397,-0.880066693,-0.116685644,0.147691682,-2.037109375,0.828613281,-0.396484375
12,4221739469,-0.343043,-0.608057,0.275853,-0.660681,9.771692276,0.533866763,1.070573211,-0.878837228,0.032325167,0.076202355,-2.0390625,0.828613281,-0.394042969
13,4221747802,-0.343064,-0.608052,0.275891,-0.660658,9.778029442,0.530812502,1.054865479,-0.833218217,-0.010898856,0.064880855,-2.040527344,0.825195313,-0.395019531
14,4221756135,-0.343083,-0.608044,0.275932,-0.66064,9.794395447,0.536134064,1.068112373,-0.827250242,0.046131242,0.136908084,-2.038574219,0.829589844,-0.395019531
15,4221764468,-0.343106,-0.608034,0.275966,-0.660622,9.767843246,0.507866144,1.036704421,-0.806809962,0.112472102,0.058118694,-2.038085938,0.828125,-0.39453125
16,4221772801,-0.343123,-0.608027,0.276003,-0.660604,9.773587227,0.518824339,1.094678283,-0.786472201,0.044671223,0.11636547,-2.040039063,0.829589844,-0.391601563
17,4221781134,-0.343143,-0.608024,0.276032,-0.660585,9.750669479,0.530469,1.071209669,-0.700305998,0.047949851,0.01221799,-2.038574219,0.827148438,-0.394042969
18,4221789467,-0.343152,-0.608025,0.276059,-0.660568,9.785096169,0.514861643,1.069435835,-0.591957808,0.001792996,0.081427649,-2.040039063,0.826171875,-0.396972656
19,4221797800,-0.343161,-0.608034,0.276077,-0.660547,9.771241188,0.51927495,1.086009145,-0.472492963,-0.06602069,-0.035206765,-2.040527344,0.825683594,-0.39453125
20,4221806133,-0.34317,-0.60804,0.276102,-0.660527,9.774917603,0.531964064,1.068212867,-0.540370703,-0.051138818,0.028483029,-2.0390625,0.828613281,-0.396484375
21,4221814466,-0.343175,-0.608044,0.276124,-0.660512,9.751821518,0.53945303,1.078119159,-0.477205992,-0.014869063,0.083809778,-2.041992188,0.825683594,-0.396484375
22,4221822799,-0.343187,-0.608052,0.276141,-0.660491,9.75905323,0.518051803,1.057240248,-0.497108281,-0.031467088,-0.069581069,-2.040039063,0.827636719,-0.395507813
23,4221831132,-0.343204,-0.608063,0.276151,-0.660468,9.78342247,0.528094411,1.053570867,-0.458123356,-0.038972061,-0.202826306,-2.036621094,0.828125,-0.391601563
24,4221839465,-0.343221,-0.60807,0.27616,-0.660448,9.779788971,0.526342094,1.072575808,-0.460018843,0.039445922,-0.16858007,-2.041503906,0.826660156,-0.394042969
25,4221847798,-0.34323,-0.608076,0.276174,-0.660432,9.773237228,0.507329702,1.066445947,-0.430050194,0.028124427,-0.035667822,-2.037109375,0.825683594,-0.396484375
26,4221856131,-0.343237,-0.608078,0.276192,-0.660419,9.793651581,0.502659023,1.063227296,-0.461248338,0.050972324,0.029891813,-2.038574219,0.826171875,-0.394042969
27,4221864464,-0.343245,-0.608085,0.276201,-0.660405,9.796913147,0.538372815,1.097095847,-0.359598249,0.049973372,-0.057734482,-2.040527344,0.825683594,-0.394042969
28,4221872797,-0.343252,-0.608094,0.276207,-0.66039,9.778150558,0.518345058,1.062290192,-0.323085129,0.036218528,-0.095477045,-2.041015625,0.828613281,-0.397460938
29,4221881130,-0.343255,-0.608107,0.276206,-0.660377,9.764324188,0.528931379,1.068741798,-0.205157205,0.037422396,-0.120783933,-2.040527344,0.828613281,-0.39453125
30,4221889463,-0.343261,-0.60812,0.276215,-0.660359,9.788500786,0.537600517,1.067254186,-0.326696724,-0.050011791,-0.090328589,-2.0390625,0.828125,-0.39453125
31,4221897796,-0.343264,-0.608139,0.276219,-0.660338,9.773151398,0.531627893,1.071245551,-0.259510607,-0.104185902,-0.130363643,-2.040039063,0.825683594,-0.393066406
32,4221906129,-0.343269,-0.608145,0.276227,-0.660327,9.792849541,0.547020793,1.070816398,-0.322700948,0.073128633,-0.03646186,-2.041992188,0.827148438,-0.394042969
33,4221914462,-0.343276,-0.608148,0.276242,-0.660314,9.770525932,0.533952594,1.066209912,-0.41893363,0.070362307,0.017827507,-2.039550781,0.828125,-0.392578125
34,4221922795,-0.343287,-0.608157,0.276249,-0.660297,9.781205177,0.505412757,1.048520923,-0.380025625,0.015624683,-0.127264321,-2.041503906,0.827636719,-0.395019531
35,4221931128,-0.343293,-0.608175,0.276248,-0.660277,9.781705856,0.522615254,1.033692718,-0.2328206,-0.04942267,-0.205900028,-2.039550781,0.827148438,-0.39453125
36,4221939461,-0.3433,-0.608191,0.276252,-0.660257,9.780833244,0.539467394,1.048585296,-0.294627756,-0.070426345,-0.164609879,-2.039550781,0.827636719,-0.393554688
37,4221947794,-0.343308,-0.608203,0.276257,-0.66024,9.775783539,0.535976768,1.066195965,-0.314888597,0.002587038,-0.128775567,-2.040039063,0.829101563,-0.394042969
38,4221956127,-0.34331,-0.608219,0.276271,-0.660219,9.770104408,0.51776588,1.047905803,-0.344473004,-0.132387176,-0.033132009,-2.038574219,0.828125,-0.39453125
39,4221964460,-0.343322,-0.60824,0.276272,-0.660192,9.79101181,0.514740229,1.069572091,-0.31337741,-0.132822633,-0.283921003,-2.0390625,0.829589844,-0.392578125
40,4221972793,-0.343318,-0.608263,0.276272,-0.660173,9.778043747,0.501285553,1.080830336,-0.123140424,-0.142786548,-0.119733736,-2.040527344,0.827148438,-0.39453125
41,4221981126,-0.343322,-0.608285,0.276268,-0.660153,9.786276817,0.543344259,1.045845747,-0.160665303,-0.081491694,-0.208922505,-2.041503906,0.828125,-0.396484375
42,4221989459,-0.34333,-0.608307,0.276275,-0.660126,9.775303841,0.540096879,1.051918507,-0.32574901,-0.185920894,-0.207616165,-2.038574219,0.828613281,-0.390136719
43,4221997792,-0.343333,-0.608326,0.276283,-0.660102,9.79030323,0.523101687,1.080429792,-0.301594794,-0.15856491,-0.126060456,-2.037597656,0.828125,-0.396484375
44,4222006125,-0.343345,-0.60834,0.27629,-0.660081,9.786305428,0.539138436,1.033864975,-0.3736476,-0.047424752,-0.168323934,-2.040039063,0.826660156,-0.39453125
45,4222014458,-0.343355,-0.608351,0.276302,-0.660061,9.796047211,0.54082644,1.034079194,-0.413119167,-0.038511001,-0.110717528,-2.038085938,0.827148438,-0.395507813
46,4222022791,-0.343357,-0.608365,0.276307,-0.660045,9.782400131,0.55594039,1.059636474,-0.251826346,-0.038229246,-0.071297221,-2.0390625,0.825683594,-0.395996094
47,4222031124,-0.34337,-0.608368,0.276324,-0.660028,9.780825615,0.565382183,1.051818371,-0.518496215,0.038984865,-0.046989318,-2.039550781,0.827636719,-0.392578125
48,4222039457,-0.343379,-0.608365,0.276359,-0.660011,9.763408661,0.544925094,1.061460733,-0.659015775,0.002484581,0.170232192,-2.039550781,0.829101563,-0.394042969
49,4222047790,-0.343383,-0.608367,0.276391,-0.659993,9.778272629,0.523859859,1.049486995,-0.586450696,-0.057619222,0.160498783,-2.0390625,0.828125,-0.394042969
50,4222056123,-0.343397,-0.608365,0.276403,-0.659983,9.757249832,0.52808696,1.05103147,-0.471442759,0.178377524,-0.04632334,-2.038574219,0.827636719,-0.392578125
51,4222064456,-0.343403,-0.60837,0.276425,-0.659966,9.764452934,0.519632578,1.074557543,-0.482149512,-0.031134101,0.058451679,-2.0390625,0.826171875,-0.394042969
52,4222072789,-0.343413,-0.608371,0.27644,-0.659954,9.760998726,0.523688436,1.050173402,-0.45922479,0.095899694,-0.004546526,-2.038574219,0.827636719,-0.396484375
53,4222081122,-0.343429,-0.608374,0.276435,-0.659945,9.777543068,0.533673584,1.082761645,-0.306256592,0.230323181,-0.201724902,-2.041992188,0.827148438,-0.393554688
54,4222089455,-0.343446,-0.608374,0.27645,-0.659929,9.794201851,0.550160646,1.072132468,-0.533429265,0.104813442,-0.090456665,-2.041015625,0.828613281,-0.393554688
55,4222097788,-0.343465,-0.608372,0.276453,-0.659921,9.788658142,0.522622764,1.050580859,-0.420393616,0.250968248,-0.146090791,-2.040527344,0.825683594,-0.396484375
56,4222106121,-0.343485,-0.608367,0.276459,-0.659912,9.775940895,0.548623025,1.054085851,-0.478947818,0.256168008,-0.13474369,-2.043457031,0.828125,-0.395507813
57,4222114454,-0.343509,-0.60836,0.276467,-0.659903,9.793192863,0.559173524,1.055351853,-0.543444395,0.285470635,-0.143093914,-2.038574219,0.827148438,-0.395507813
58,4222122787,-0.34353,-0.608351,0.276492,-0.65989,9.786426544,0.553022027,1.033235312,-0.684540391,0.177775577,0.014023793,-2.038574219,0.827148438,-0.393554688
59,4222131120,-0.343547,-0.60834,0.276512,-0.659882,9.771477699,0.539531648,1.051503658,-0.608594179,0.245269105,0.047808971,-2.0390625,0.824707031,-0.394042969
60,4222139453,-0.343574,-0.60832,0.276534,-0.659878,9.776591301,0.540504575,1.032377005,-0.728788972,0.406728446,0.011859391,-2.039550781,0.829101563,-0.395019531
61,4222147786,-0.343604,-0.608305,0.276562,-0.659865,9.757006645,0.53144908,1.042619824,-0.82635361,0.244154885,-0.009515688,-2.040039063,0.828125,-0.394042969
62,4222156119,-0.343626,-0.60829,0.276589,-0.659855,9.767378807,0.534117103,1.07616663,-0.726125181,0.251839161,0.063856296,-2.038085938,0.828125,-0.395507813
63,4222164452,-0.343645,-0.608282,0.276606,-0.659846,9.753852844,0.529982746,1.075880527,-0.579906285,0.224957004,-0.015778366,-2.040039063,0.825195313,-0.394042969
64,4222172785,-0.343657,-0.608283,0.276621,-0.659832,9.739912033,0.55073297,1.064507365,-0.485146463,0.110218063,-0.037076607,-2.041015625,0.831054688,-0.397460938
65,4222181118,-0.343659,-0.608273,0.276645,-0.65983,9.743123055,0.593042195,1.047397971,-0.484121829,0.203658774,0.235650942,-2.0390625,0.826660156,-0.392089844
66,4222189451,-0.343651,-0.608251,0.276687,-0.659837,9.753123283,0.60089606,1.076789021,-0.60121733,0.276108652,0.571415186,-2.041015625,0.829101563,-0.392578125
67,4222197784,-0.343635,-0.608226,0.276746,-0.659844,9.746692657,0.58306402,1.080558538,-0.675447285,0.17854403,0.79372108,-2.038574219,0.826660156,-0.394042969
68,4222206117,-0.343586,-0.608197,0.276822,-0.659865,9.756634712,0.619679391,1.084828734,-0.536144376,0.144797266,1.309937716,-2.038574219,0.828125,-0.396484375
69,4222214450,-0.343529,-0.608157,0.276917,-0.659891,9.752542496,0.594853699,1.068576574,-0.679763377,0.15609315,1.610008478,-2.040527344,0.828125,-0.395996094
70,4222222783,-0.343459,-0.608124,0.277038,-0.659907,9.754760742,0.565658808,1.055608034,-0.800534546,-0.16732499,1.87191391,-2.0390625,0.828125,-0.394042969
71,4222231116,-0.343408,-0.608071,0.277149,-0.659936,9.770541191,0.585293055,1.050811052,-0.923021734,0.246921211,1.761695743,-2.038574219,0.827636719,-0.392089844
72,4222239449,-0.343336,-0.608016,0.277259,-0.659978,9.773594856,0.723134816,1.014873266,-0.691264153,0.300659895,2.00523591,-2.039550781,0.828613281,-0.395996094
73,4222247782,-0.343241,-0.607878,0.27753,-0.66004,9.871202469,0.57908392,0.948738396,-2.264234304,0.378450334,3.970667839,-2.040527344,0.829101563,-0.392578125
74,4222256115,-0.343093,-0.607744,0.277716,-0.660162,9.690556526,0.729935884,1.139875174,-0.824599147,1.037120461,4.008755684,-2.041503906,0.829589844,-0.395019531
75,4222264448,-0.342913,-0.607639,0.277953,-0.660253,9.725906372,0.913156629,1.193699002,-0.983035862,0.148229584,4.474141121,-2.039550781,0.830078125,-0.394042969
76,4222272781,-0.342628,-0.607455,0.278444,-0.660363,9.772893906,0.905806363,1.157147169,-2.728287697,-0.570134461,7.931371212,-2.040039063,0.830566406,-0.39453125
77,4222281114,-0.342317,-0.607234,0.279041,-0.660475,9.839464188,0.62705338,0.977240086,-3.636094809,-0.811740696,9.221176147,-2.038574219,0.831542969,-0.39453125
78,4222289447,-0.341964,-0.607036,0.279657,-0.66058,9.774933815,0.700031579,1.096897006,-3.369770527,-1.33482182,9.623601913,-2.039550781,0.836425781,-0.392089844
79,4222297780,-0.341577,-0.606823,0.280316,-0.660697,9.814406395,0.496923834,1.063727975,-3.513517141,-1.438943624,10.40327168,-2.038085938,0.832519531,-0.392089844
80,4222306113,-0.341207,-0.606579,0.281013,-0.660816,9.796836853,0.178226918,1.010077596,-4.130820751,-1.251268387,10.7110033,-2.034179688,0.838867188,-0.393554688
81,4222314446,-0.340933,-0.606427,0.281507,-0.660886,9.790447235,0.148226574,1.003941774,-2.843589544,-1.164013267,7.552370071,-2.03515625,0.83984375,-0.391113281
82,4222322779,-0.340678,-0.606309,0.28191,-0.660955,9.776338577,0.217423424,1.031227946,-2.020079374,-0.987467229,6.483757019,-2.033203125,0.841308594,-0.394042969
83,4222331112,-0.34047,-0.60619,0.282307,-0.661002,9.776797295,0.149158597,1.028848052,-2.444046259,-0.946791768,5.904541969,-2.036132813,0.839355469,-0.392578125
84,4222339445,-0.340336,-0.606082,0.282605,-0.661042,9.758515358,0.104876749,1.01110661,-2.142822981,-0.345446378,4.33308363,-2.034667969,0.841308594,-0.392578125
85,4222347778,-0.340241,-0.606024,0.282773,-0.661072,9.783901215,0.217998415,1.003731251,-1.087670088,-0.139226168,2.65732336,-2.03515625,0.840820313,-0.391601563
86,4222356111,-0.340157,-0.605972,0.2829,-0.661109,9.808454514,0.375107527,0.983218849,-0.752174914,0.104480468,2.232254982,-2.035644531,0.842773438,-0.392578125
87,4222364444,-0.34009,-0.605882,0.283062,-0.661157,9.793777466,0.438795865,1.069973946,-1.350164771,0.441999257,2.549385071,-2.031738281,0.844726563,-0.390136719
88,4222372777,-0.340012,-0.605799,0.283248,-0.661193,9.770956993,0.429519206,1.032193542,-1.483666301,0.123460621,2.771357775,-2.034179688,0.843261719,-0.395507813
89,4222381110,-0.33996,-0.605701,0.28342,-0.661236,9.824101448,0.487446427,1.028041005,-1.611583829,0.481445193,2.519697905,-2.034179688,0.841796875,-0.391113281
90,4222389443,-0.339882,-0.605572,0.283693,-0.661277,9.803109169,0.474979967,1.038662314,-2.477857351,0.1761235,3.692420483,-2.034667969,0.842773438,-0.387695313
91,4222397776,-0.339773,-0.605451,0.283975,-0.661323,9.794714928,0.360031307,1.074356794,-2.233343601,-0.015458193,4.06121397,-2.03515625,0.843261719,-0.392089844
92,4222406109,-0.339655,-0.605333,0.284243,-0.661376,9.778684616,0.334237486,1.12621367,-1.996898651,0.047309492,4.04072237,-2.035644531,0.846191406,-0.391113281
93,4222414442,-0.339536,-0.605259,0.284495,-0.661397,9.803926468,0.271622628,1.045096397,-1.765858173,-0.552076399,3.596238613,-2.034667969,0.845214844,-0.392089844
94,4222422775,-0.339411,-0.605208,0.284713,-0.661414,9.846603394,0.238992691,0.983127832,-1.318966627,-0.655378699,3.249447823,-2.034179688,0.846191406,-0.390136719
95,4222431108,-0.339289,-0.605168,0.284892,-0.661436,9.7902174,0.203104123,1.058982253,-0.907922208,-0.527012885,2.884675026,-2.03125,0.844726563,-0.391113281
96,4222439441,-0.339152,-0.605184,0.28503,-0.661432,9.771759987,0.217397228,1.064119339,-0.24797143,-1.116114736,2.330498457,-2.033203125,0.847167969,-0.390625
97,4222447774,-0.33903,-0.605212,0.285136,-0.661424,9.81482029,0.222399846,1.022761226,-0.047296688,-1.050760031,1.878727436,-2.031738281,0.848144531,-0.388671875
98,4222456107,-0.33893,-0.605255,0.285232,-0.661393,9.832687378,0.169880807,1.035979033,-0.160191402,-1.241265774,1.422166348,-2.029785156,0.846679688,-0.390625
99,4222464440,-0.33882,-0.605331,0.285276,-0.661361,9.822594643,0.215296686,1.031668544,0.544315279,-1.35345614,0.946868598,-2.032226563,0.846679688,-0.391113281
100,4222472773,-0.338735,-0.605412,0.285281,-0.661329,9.857883453,0.162949219,0.985640287,0.720656455,-1.116639733,0.365335822,-2.030761719,0.849121094,-0.392089844
101,4222481106,-0.33865,-0.60551,0.285252,-0.661295,9.814222336,0.180838183,1.018908143,1.09943974,-1.125476718,0.011244648,-2.034179688,0.849609375,-0.388183594
102,4222489439,-0.338594,-0.605619,0.285169,-0.66126,9.857091904,0.145439446,0.990335941,1.391314149,-0.865133643,-0.743363619,-2.033691406,0.848144531,-0.391601563
103,4222497772,-0.338552,-0.605736,0.285053,-0.661224,9.883436203,0.161172748,1.027994871,1.617897391,-0.755760789,-1.180547237,-2.032714844,0.849121094,-0.391601563
104,4222506105,-0.338527,-0.605866,0.284883,-0.661191,9.885796547,0.181166992,1.002177238,2.032515287,-0.512246251,-1.836604834,-2.03125,0.849609375,-0.390136719
105,4222514438,-0.338523,-0.605998,0.284655,-0.66117,9.837042809,0.237172827,0.982079685,2.42858839,-0.097679891,-2.449323177,-2.031738281,0.844238281,-0.391601563
106,4222522771,-0.338549,-0.606116,0.284417,-0.661151,9.847518921,0.269514978,0.982758999,2.232869864,0.230886728,-2.742221832,-2.035644531,0.846679688,-0.391601563
107,4222531104,-0.338623,-0.606199,0.28416,-0.661148,9.839129448,0.292102963,0.968285799,1.897502542,0.94332093,-3.135348797,-2.032714844,0.844238281,-0.389160156
108,4222539437,-0.338739,-0.606265,0.283899,-0.66114,9.833985329,0.296956927,1.03987205,1.484216928,1.254610777,-3.496150732,-2.032226563,0.842773438,-0.389160156
109,4222547770,-0.338856,-0.606336,0.283618,-0.661136,9.828248978,0.339227289,0.973454654,1.693075418,1.324460983,-3.667484522,-2.031738281,0.844726563,-0.392089844
110,4222556103,-0.338995,-0.606388,0.283331,-0.66114,9.859268188,0.409113437,1.002200246,1.516029716,1.682650447,-3.826369762,-2.03515625,0.844726563,-0.390136719
111,4222564436,-0.339158,-0.606418,0.283056,-0.661146,9.86432457,0.407678217,1.040151834,1.112605453,1.939125776,-3.837768078,-2.034667969,0.843261719,-0.389160156
112,4222572769,-0.339354,-0.606417,0.282809,-0.661152,9.836595535,0.378933072,1.001574993,0.426284939,2.224865675,-3.78729558,-2.034179688,0.841308594,-0.389648438
113,4222581102,-0.33957,-0.606413,0.282522,-0.661167,9.802090645,0.447750479,1.010556698,0.647028446,2.574832678,-4.240923405,-2.036132813,0.844238281,-0.39453125
114,4222589435,-0.339806,-0.606392,0.28225,-0.661183,9.792901993,0.500623405,1.013641238,0.273329526,2.762469769,-4.235787868,-2.033691406,0.841308594,-0.39453125
115,4222597768,-0.340042,-0.606343,0.282034,-0.661198,9.797699928,0.486884505,1.028132915,-0.376670122,2.737495899,-3.656316757,-2.031738281,0.842773438,-0.39453125
116,4222606101,-0.340303,-0.606282,0.281833,-0.661205,9.771294594,0.432744116,1.046188831,-0.797973037,2.814133644,-3.762666702,-2.036621094,0.840332031,-0.394042969
117,4222614434,-0.340569,-0.60622,0.281628,-0.661212,9.734514236,0.377321035,1.062410951,-0.814801693,2.856320381,-3.834540844,-2.034179688,0.839355469,-0.393554688
118,4222622767,-0.340848,-0.606176,0.281425,-0.661195,9.731122017,0.359336555,1.085922599,-0.954130292,2.532902002,-4.104527473,-2.033691406,0.836914063,-0.393554688
119,4222631100,-0.34115,-0.606151,0.281209,-0.661155,9.754267693,0.361980408,1.081083059,-1.022212982,2.320355415,-4.619117737,-2.038085938,0.840820313,-0.393554688
120,4222639433,-0.341449,-0.606155,0.280974,-0.661096,9.721781731,0.358006388,1.086470366,-0.753378749,1.966174364,-4.94092226,-2.034179688,0.838378906,-0.392578125
121,4222647766,-0.341746,-0.606176,0.280748,-0.661021,9.675841331,0.32177496,1.101832628,-0.811740696,1.636992812,-4.992086411,-2.037109375,0.837402344,-0.398925781
122,4222656099,-0.34203,-0.606251,0.280471,-0.660922,9.655695915,0.356059968,1.103805184,-0.075139359,1.129843831,-5.630047321,-2.036132813,0.834472656,-0.393066406
123,4222664432,-0.342315,-0.606363,0.280169,-0.660799,9.694908142,0.357153594,1.124215722,0.223689154,0.719452739,-6.088439941,-2.03515625,0.837890625,-0.39453125
124,4222672765,-0.342595,-0.606487,0.279862,-0.66067,9.741008759,0.420649111,1.128890872,0.338722706,0.566023469,-6.16374588,-2.034179688,0.836914063,-0.395996094
125,4222681098,-0.342862,-0.606636,0.279527,-0.660537,9.771121025,0.458059579,1.058494449,0.818835855,0.393204093,-6.397423744,-2.035644531,0.834472656,-0.397949219
126,4222689431,-0.343115,-0.606792,0.279206,-0.660399,9.781607628,0.50578934,1.031488657,0.807527304,0.159615114,-6.206944466,-2.036621094,0.83203125,-0.39453125
127,4222697764,-0.343366,-0.606926,0.278886,-0.66028,9.7870121,0.543434501,1.059518576,0.794220567,0.498427391,-5.991976261,-2.038085938,0.832519531,-0.395996094
128,4222706097,-0.343597,-0.607042,0.278595,-0.660177,9.776415825,0.539950967,1.062458992,0.66433084,0.595223606,-5.43361187,-2.038574219,0.831054688,-0.395019531
129,4222714430,-0.343825,-0.607149,0.278297,-0.660084,9.75736618,0.536188185,1.027776361,0.750151336,0.772307694,-5.38413763,-2.037597656,0.832519531,-0.3984375
130,4222722763,-0.34407,-0.607231,0.278023,-0.659997,9.735488892,0.494889498,1.023702621,0.29684338,1.012812495,-5.21550703,-2.041015625,0.829589844,-0.393554688
131,4222731096,-0.344322,-0.607302,0.277736,-0.659921,9.7308321,0.48975578,1.007914305,0.35736981,1.287499309,-5.287097931,-2.036621094,0.827636719,-0.397949219
132,4222739429,-0.344588,-0.607369,0.277412,-0.659857,9.723896027,0.459167629,1.037664175,0.590613067,1.648814082,-5.663448334,-2.038085938,0.828125,-0.395507813
133,4222747762,-0.34486,-0.607432,0.277065,-0.659802,9.786917686,0.50603503,1.026858449,0.765788853,1.891380787,-5.830888748,-2.041503906,0.828613281,-0.398925781
134,4222756095,-0.34514,-0.607476,0.276728,-0.659757,9.801107407,0.529266536,1.062531829,0.560234547,2.144884825,-5.706915379,-2.0390625,0.825683594,-0.398925781
135,4222764428,-0.345424,-0.607505,0.276386,-0.659725,9.82276535,0.512735605,1.043355465,0.5511415,2.408071041,-5.673182011,-2.0390625,0.823730469,-0.397949219
136,4222772761,-0.345731,-0.607506,0.276045,-0.659706,9.841367722,0.454804957,1.020158052,0.258498847,2.867564678,-5.708580494,-2.041015625,0.82421875,-0.395507813
137,4222781094,-0.346041,-0.607517,0.275652,-0.659698,9.852517128,0.545323253,1.033355474,0.805209041,3.113666296,-6.149350166,-2.039550781,0.824707031,-0.3984375
138,4222789427,-0.346366,-0.607498,0.275263,-0.659707,9.827371597,0.620245993,1.056687117,0.563128948,3.580972433,-6.056549549,-2.040039063,0.822265625,-0.3984375
139,4222797760,-0.346684,-0.607443,0.274923,-0.659732,9.769510269,0.58871007,1.084528804,0.068390004,3.767725706,-5.375620842,-2.041992188,0.819824219,-0.3984375
140,4222806093,-0.347013,-0.607395,0.274558,-0.659756,9.756633759,0.57461983,1.124297619,0.227377534,3.866468191,-5.721848488,-2.040039063,0.8203125,-0.397949219
141,4222814426,-0.347327,-0.607351,0.274197,-0.659781,9.751669884,0.658723593,1.107491255,0.339977771,3.757300854,-5.553947449,-2.046386719,0.821777344,-0.399902344
142,4222822759,-0.347626,-0.607295,0.273868,-0.659811,9.749595642,0.663164318,1.115232229,0.138137579,3.709402323,-5.079213619,-2.042480469,0.818847656,-0.398925781
143,4222831092,-0.34791,-0.607213,0.273592,-0.659852,9.698983192,0.615069389,1.184117317,-0.321970969,3.719340324,-4.344943047,-2.043945313,0.817382813,-0.401855469
144,4222839425,-0.348175,-0.607177,0.273264,-0.659881,9.76674366,0.661188304,1.109740138,0.502192676,3.377851963,-4.854294777,-2.040527344,0.818847656,-0.400878906
145,4222847758,-0.348444,-0.60713,0.272942,-0.659916,9.808490753,0.703661442,1.124641657,0.390770763,3.51055932,-4.762339115,-2.042480469,0.816894531,-0.402832031
146,4222856091,-0.348716,-0.607031,0.272685,-0.659969,9.772834778,0.708214998,1.11292398,-0.415962368,3.83232522,-3.962509632,-2.041503906,0.818847656,-0.401855469
147,4222864424,-0.348973,-0.606936,0.272453,-0.660017,9.755626678,0.658207953,1.10419333,-0.508711457,3.588477373,-3.65401125,-2.040527344,0.815429688,-0.402832031
148,4222872757,-0.349211,-0.606847,0.272178,-0.660086,9.707389832,0.705091119,1.146835208,0.140033036,3.844594479,-3.767611027,-2.044921875,0.816894531,-0.399902344
149,4222881090,-0.349437,-0.606753,0.271925,-0.660158,9.677488327,0.841517687,1.228944659,0.043697882,3.748464108,-3.439799309,-2.043457031,0.814941406,-0.403808594
150,4222889423,-0.349636,-0.606642,0.271782,-0.660213,9.693518639,0.81106472,1.210337639,-0.889633477,3.139779806,-2.292268991,-2.043945313,0.814941406,-0.400878906
151,4222897756,-0.349826,-0.606519,0.271673,-0.66027,9.726366997,0.678157687,1.127568007,-1.179151297,3.078766823,-1.867123961,-2.04296875,0.813476563,-0.405761719
152,4222906089,-0.350012,-0.606408,0.271543,-0.660327,9.739167213,0.589508712,1.115036011,-0.883550107,3.046889544,-2.075534105,-2.044921875,0.814453125,-0.403320313
153,4222914422,-0.350198,-0.606336,0.271348,-0.660375,9.758363724,0.627556384,1.141126633,-0.151930824,2.924043894,-2.781769514,-2.046875,0.814453125,-0.403808594
154,4222922755,-0.350391,-0.606238,0.27121,-0.660418,9.770443916,0.663869739,1.170306444,-0.86177808,2.879142523,-2.311876774,-2.043457031,0.813964844,-0.403808594
155,4222931088,-0.35058,-0.606142,0.271081,-0.66046,9.735681534,0.622051775,1.170725465,-0.898995459,2.789978743,-2.196894169,-2.046875,0.813476563,-0.406738281
156,4222939421,-0.350757,-0.606063,0.270936,-0.660498,9.726208687,0.618499637,1.172365665,-0.587897956,2.644093752,-2.319112778,-2.045410156,0.8125,-0.403808594
157,4222947754,-0.350934,-0.606011,0.270766,-0.660521,9.717459679,0.678851485,1.181300163,-0.300800771,2.379434347,-2.685998201,-2.047363281,0.813476563,-0.408203125
158,4222956087,-0.351109,-0.605956,0.270607,-0.660544,9.697432518,0.739144921,1.15520072,-0.394292772,2.354434967,-2.581671715,-2.048339844,0.811523438,-0.407714844
159,4222964420,-0.351268,-0.605899,0.270466,-0.660569,9.681264877,0.766461849,1.240426064,-0.424491942,2.245497465,-2.255986691,-2.045410156,0.812011719,-0.404296875
160,4222972753,-0.351417,-0.605852,0.270359,-0.660576,9.683861732,0.821450472,1.188246965,-0.664292336,1.800859809,-2.025509596,-2.045898438,0.811035156,-0.404785156
161,4222981086,-0.351547,-0.605804,0.270269,-0.660589,9.679498672,0.86256212,1.215383887,-0.643314421,1.704729915,-1.655998945,-2.047363281,0.809082031,-0.406738281
162,4222989419,-0.35167,-0.605736,0.270251,-0.660593,9.713223457,0.824138105,1.23174119,-1.373985887,1.436984062,-0.979091287,-2.044433594,0.812011719,-0.404296875
163,4222997752,-0.35178,-0.605664,0.270279,-0.660589,9.720422745,0.728131592,1.178580046,-1.723773956,1.139782071,-0.484890223,-2.044433594,0.810058594,-0.407714844
164,4223006085,-0.351883,-0.605606,0.270278,-0.660587,9.715276718,0.69867295,1.211199641,-1.332157969,1.140755534,-0.710372388,-2.045410156,0.813476563,-0.404296875
165,4223014418,-0.351977,-0.605562,0.270279,-0.660577,9.679201126,0.705379128,1.226928949,-1.227446914,0.906871974,-0.707785249,-2.044921875,0.811523438,-0.409179688
166,4223022751,-0.352065,-0.60552,0.270292,-0.660563,9.670028687,0.708274484,1.220239282,-1.307517052,0.770988464,-0.576102555,-2.045898438,0.810546875,-0.405273438
167,4223031084,-0.352143,-0.605494,0.270324,-0.660533,9.693675995,0.667231262,1.225303531,-1.375394821,0.361877918,-0.468855768,-2.043457031,0.811523438,-0.408691406
168,4223039417,-0.352205,-0.605488,0.270345,-0.660497,9.710248947,0.60030967,1.210439682,-1.076246023,0.135294393,-0.523747087,-2.044433594,0.810546875,-0.409667969
169,4223047750,-0.352265,-0.605512,0.270321,-0.660453,9.723202705,0.592355549,1.191198707,-0.527640462,-0.003573186,-1.019920468,-2.044921875,0.810058594,-0.409667969
170,4223056083,-0.352322,-0.605562,0.270263,-0.6604,9.75440979,0.626553178,1.192157149,-0.101035349,-0.159461409,-1.419963479,-2.044921875,0.809570313,-0.41015625
171,4223064416,-0.352376,-0.605618,0.270194,-0.660348,9.753360748,0.645844579,1.193223,0.066007882,-0.160460353,-1.496421933,-2.045410156,0.810058594,-0.410644531
172,4223072749,-0.35243,-0.605678,0.270132,-0.660289,9.764982224,0.678261161,1.177515268,-0.007312865,-0.29806006,-1.49065876,-2.046875,0.806640625,-0.408203125
173,4223081082,-0.352491,-0.605724,0.270065,-0.660242,9.793292999,0.649242103,1.163238287,-0.065111384,-0.011603247,-1.481962562,-2.044433594,0.809082031,-0.40625
174,4223089415,-0.352556,-0.605774,0.269985,-0.660194,9.796133995,0.680450022,1.170248032,0.067147717,0.013204138,-1.653680563,-2.045410156,0.810546875,-0.404296875
175,4223097748,-0.352613,-0.605821,0.269895,-0.660158,9.789953232,0.705513537,1.194317341,0.234600782,0.164084777,-1.583074927,-2.046386719,0.810058594,-0.40625
176,4223106081,-0.352677,-0.605852,0.269806,-0.660131,9.774295807,0.725305438,1.156185508,0.13213104,0.413247257,-1.551044464,-2.043945313,0.809082031,-0.407226563
177,4223114414,-0.352741,-0.605878,0.269742,-0.6601,9.774538994,0.743502259,1.192529082,-0.146987289,0.299686521,-1.340994716,-2.045898438,0.80859375,-0.406738281
178,4223122747,-0.352807,-0.605883,0.269678,-0.660086,9.770082474,0.70723021,1.142323375,-0.198651195,0.631826341,-1.191100359,-2.047363281,0.809082031,-0.408691406
179,4223131080,-0.35289,-0.605879,0.269598,-0.660078,9.733695984,0.720953643,1.150491238,-0.205951244,0.91045785,-1.419246316,-2.047363281,0.807617188,-0.406738281
180,4223139413,-0.352965,-0.605872,0.269528,-0.660073,9.740319252,0.749946892,1.183423758,-0.238916785,0.879490435,-1.237462044,-2.046386719,0.810546875,-0.408203125
181,4223147746,-0.353044,-0.605862,0.269469,-0.660064,9.748581886,0.72861737,1.183072925,-0.404435903,0.844219446,-1.182673097,-2.044921875,0.809570313,-0.407226563
182,4223156079,-0.353113,-0.605847,0.269407,-0.660066,9.780890465,0.766105235,1.136121869,-0.268731743,0.958407879,-1.061799645,-2.044921875,0.807128906,-0.407714844
183,4223164412,-0.35318,-0.60582,0.269357,-0.660075,9.76458931,0.762035251,1.199596167,-0.408316463,1.043485522,-0.85528487,-2.048828125,0.807617188,-0.407714844
184,4223172745,-0.35324,-0.605792,0.269318,-0.660085,9.763473511,0.766019404,1.193480492,-0.43399477,1.005922198,-0.692903399,-2.046386719,0.807617188,-0.405273438
185,4223181078,-0.353299,-0.605765,0.269272,-0.660096,9.754869461,0.750991583,1.189067245,-0.360840529,1.013427138,-0.727482677,-2.049804688,0.807128906,-0.411621094
186,4223189411,-0.353359,-0.605732,0.26924,-0.660108,9.747121811,0.771877587,1.180326343,-0.522312641,1.016705751,-0.619723558,-2.045410156,0.80859375,-0.411621094
187,4223197744,-0.353418,-0.605689,0.269229,-0.660121,9.705513954,0.733080566,1.194431782,-0.747666657,1.017294884,-0.373237789,-2.046386719,0.808105469,-0.412109375
188,4223206077,-0.353466,-0.605665,0.269205,-0.660126,9.628306389,0.728881836,1.234273076,-0.482943565,0.796269655,-0.503255665,-2.046875,0.805175781,-0.406738281
189,4223214410,-0.353498,-0.605664,0.269175,-0.660122,9.656273842,0.802456021,1.233235955,-0.204004571,0.488796413,-0.5219028,-2.045410156,0.809082031,-0.408203125
190,4223222743,-0.353518,-0.605662,0.269179,-0.660111,9.675372124,0.796833873,1.237398863,-0.457969695,0.224406302,-0.174445733,-2.048828125,0.806640625,-0.409179688
191,4223231076,-0.353539,-0.605638,0.26922,-0.660106,9.70745182,0.73690021,1.203029513,-0.878273785,0.298457086,0.239954174,-2.042480469,0.80859375,-0.408691406
192,4223239409,-0.353564,-0.605632,0.26922,-0.660098,9.729762077,0.696465194,1.192343116,-0.466217458,0.320715845,-0.220628202,-2.048339844,0.809570313,-0.408691406
193,4223247742,-0.353596,-0.605625,0.269224,-0.660085,9.786283493,0.700270474,1.180984497,-0.577050269,0.301581979,-0.264940828,-2.048339844,0.805664063,-0.409179688
194,4223256075,-0.353632,-0.60561,0.26923,-0.660078,9.811375618,0.679255009,1.195376039,-0.651049852,0.423710704,-0.237354338,-2.047851563,0.810546875,-0.412109375
195,4223264408,-0.353679,-0.605584,0.269224,-0.660079,9.796326637,0.613285065,1.201055288,-0.656185448,0.684745312,-0.33964473,-2.046386719,0.809570313,-0.409179688
196,4223272741,-0.353732,-0.605577,0.269157,-0.660083,9.771712303,0.672982395,1.19353056,-0.055621311,0.868860424,-0.976171315,-2.044921875,0.807617188,-0.406738281
197,4223281074,-0.3538,-0.605565,0.269081,-0.660089,9.760204315,0.756406009,1.195919633,-0.096808992,1.024620533,-1.146019101,-2.045898438,0.808105469,-0.408203125
198,4223289407,-0.353876,-0.605521,0.269072,-0.660093,9.768186569,0.655822694,1.17320931,-0.953502655,0.997213364,-0.561041355,-2.045410156,0.806640625,-0.407714844
199,4223297740,-0.353942,-0.605499,0.269025,-0.660096,9.780389786,0.617783904,1.157151222,-0.4113518,0.94590801,-0.868053675,-2.046875,0.807128906,-0.407714844
200,4223306073,-0.354022,-0.605508,0.268869,-0.660109,9.773670197,0.782294631,1.196936965,0.643122256,1.329071641,-1.968057156,-2.04296875,0.808105469,-0.41015625
201,4223314406,-0.3541,-0.605485,0.268795,-0.660118,9.786247253,0.81700629,1.249503732,-0.256360084,1.176948667,-1.174988985,-2.049804688,0.80859375,-0.412597656
202,4223322739,-0.354163,-0.605432,0.268804,-0.66013,9.752794266,0.719167948,1.173488259,-1.015771031,1.009072781,-0.218783975,-2.045898438,0.807128906,-0.41015625
203,4223331072,-0.35423,-0.605417,0.268722,-0.660141,9.763422966,0.73037678,1.211391211,-0.043659464,1.110274673,-1.156367421,-2.044433594,0.805664063,-0.411132813
204,4223339405,-0.354286,-0.605396,0.268662,-0.660154,9.741441727,0.757965267,1.209202528,-0.168375164,1.054845333,-0.847382903,-2.047851563,0.806152344,-0.409667969
205,4223347738,-0.354348,-0.605368,0.268613,-0.660167,9.725384712,0.802026808,1.231097221,-0.371905833,1.069112539,-0.773127258,-2.045898438,0.806152344,-0.409667969
206,4223356071,-0.354408,-0.605338,0.268587,-0.660173,9.758273125,0.751270235,1.228164554,-0.569519758,0.92326504,-0.593469083,-2.045410156,0.806152344,-0.409667969
207,4223364404,-0.354451,-0.605301,0.26858,-0.660186,9.746886253,0.695478082,1.201684713,-0.634093106,0.879669607,-0.224803329,-2.046386719,0.806152344,-0.410644531
208,4223372737,-0.354499,-0.605295,0.268501,-0.660198,9.733711243,0.756191432,1.215604305,0.137919843,0.947867513,-0.99631685,-2.045410156,0.801757813,-0.411132813
209,4223381070,-0.354542,-0.605284,0.268445,-0.660208,9.730563164,0.806561708,1.226762652,-0.062306628,0.869167805,-0.740366638,-2.047851563,0.809082031,-0.412109375
210,4223389403,-0.354577,-0.605251,0.268458,-0.660214,9.70374012,0.750490606,1.220911622,-0.73342526,0.651190698,-0.033183243,-2.049316406,0.806152344,-0.411621094
211,4223397736,-0.354604,-0.605236,0.268436,-0.660223,9.717844009,0.708760619,1.194238663,-0.270012468,0.66929996,-0.306128532,-2.045410156,0.805664063,-0.412597656
212,4223406069,-0.354627,-0.605239,0.26838,-0.66023,9.683639526,0.776233673,1.239809275,0.163034633,0.630417585,-0.620005429,-2.045410156,0.805175781,-0.41015625
213,4223414402,-0.354636,-0.60524,0.268358,-0.660233,9.721743584,0.798071325,1.230346203,-0.051318116,0.392922342,-0.2352283,-2.044433594,0.8046875,-0.414550781
214,4223422735,-0.35464,-0.605224,0.268369,-0.660241,9.717744827,0.744954288,1.21396625,-0.39129582,0.423300833,0.18239896,-2.045410156,0.8046875,-0.407714844
215,4223431068,-0.354646,-0.605216,0.268349,-0.660253,9.70743084,0.742415011,1.220153451,-0.056620263,0.532289386,-0.112075083,-2.044433594,0.804199219,-0.413574219
216,4223439401,-0.354653,-0.605226,0.268313,-0.660255,9.723124504,0.773236632,1.225425005,0.127315566,0.374236792,-0.363056183,-2.050292969,0.805664063,-0.412597656
217,4223447734,-0.354659,-0.605219,0.268308,-0.660261,9.734976768,0.784838557,1.217385292,-0.208973721,0.407727361,-0.012871153,-2.049316406,0.806152344,-0.411621094
218,4223456067,-0.354657,-0.605206,0.268326,-0.660267,9.725828171,0.744095922,1.238850951,-0.386505961,0.316617548,0.265593976,-2.043945313,0.805664063,-0.411621094
219,4223464400,-0.354657,-0.605202,0.268324,-0.660271,9.720691681,0.721342742,1.191985488,-0.19117184,0.318871588,0.049947757,-2.047363281,0.806152344,-0.410644531
220,4223472733,-0.354656,-0.6052,0.268324,-0.660273,9.7168293,0.758831084,1.205182552,-0.17854403,0.282934815,0.043544196,-2.045898438,0.807128906,-0.412597656
221,4223481066,-0.354653,-0.605202,0.268316,-0.660276,9.729911804,0.789259017,1.222663999,-0.089969993,0.26905188,-0.002036331,-2.045898438,0.806152344,-0.41015625
222,4223489399,-0.354651,-0.60519,0.268331,-0.660282,9.744367599,0.817584276,1.185547948,-0.345241457,0.325121492,0.232833415,-2.044921875,0.805664063,-0.411132813
223,4223497732,-0.354652,-0.605171,0.268356,-0.660289,9.738888741,0.78347975,1.199481964,-0.498414546,0.359905571,0.335136592,-2.049316406,0.8046875,-0.411621094
224,4223506065,-0.354655,-0.605139,0.268395,-0.6603,9.758301735,0.743530869,1.213107824,-0.700895131,0.442152917,0.486542404,-2.047363281,0.806152344,-0.413574219
225,4223514398,-0.354668,-0.60511,0.268415,-0.660313,9.740934372,0.739739895,1.190805316,-0.574335217,0.565306246,0.247997075,-2.046875,0.806640625,-0.413085938
226,4223522731,-0.354682,-0.605082,0.268433,-0.660323,9.737823486,0.767027617,1.189210057,-0.570646703,0.542227626,0.197818711,-2.044921875,0.806152344,-0.414550781
227,4223531064,-0.354696,-0.605044,0.268465,-0.660337,9.757043839,0.775124729,1.223693848,-0.744797826,0.600346446,0.370176882,-2.045410156,0.80859375,-0.410644531
228,4223539397,-0.354705,-0.605005,0.268506,-0.660351,9.750383377,0.759610057,1.20832932,-0.77894181,0.553549349,0.494841456,-2.045898438,0.804199219,-0.411132813
229,4223547730,-0.354716,-0.604964,0.268535,-0.660371,9.732372284,0.740719795,1.210489869,-0.68311882,0.667558134,0.420944333,-2.045410156,0.806152344,-0.411621094
230,4223556063,-0.354726,-0.604918,0.26856,-0.660398,9.738618851,0.773773372,1.228780031,-0.629815698,0.804953039,0.442639619,-2.043457031,0.807128906,-0.412597656
231,4223564396,-0.354735,-0.60487,0.268604,-0.660419,9.692681313,0.776512623,1.222098947,-0.832936466,0.684028149,0.593891621,-2.046386719,0.806152344,-0.4140625
232,4223572729,-0.354742,-0.604817,0.268659,-0.660441,9.688246727,0.75506109,1.223829746,-0.916823149,0.660744786,0.714688301,-2.044921875,0.805175781,-0.409667969
233,4223581062,-0.354742,-0.604781,0.2687,-0.660459,9.69181633,0.745069027,1.258965015,-0.681377053,0.517894208,0.592867017,-2.043945313,0.804199219,-0.410644531
234,4223589395,-0.354748,-0.604742,0.268741,-0.660473,9.69489193,0.742422581,1.258807778,-0.759756565,0.541638613,0.514974177,-2.047851563,0.804199219,-0.411132813
235,4223597728,-0.35475,-0.604704,0.268797,-0.660484,9.743022919,0.755468965,1.209703088,-0.874623597,0.405434906,0.675280809,-2.045898438,0.805664063,-0.411621094
236,4223606061,-0.354752,-0.604672,0.268849,-0.660492,9.724790573,0.747457981,1.205297351,-0.804171681,0.355551183,0.590741098,-2.045898438,0.804199219,-0.415039063
237,4223614394,-0.354758,-0.604631,0.26889,-0.66051,9.705563545,0.767514348,1.232542157,-0.76119101,0.594327092,0.55608505,-2.043945313,0.806640625,-0.413085938
238,4223622727,-0.354762,-0.604587,0.268959,-0.66052,9.720098495,0.777943373,1.26082468,-1.036928296,0.39755857,0.773396194,-2.047851563,0.805175781,-0.412597656
239,4223631060,-0.354761,-0.604544,0.269045,-0.660525,9.732452393,0.783429265,1.233729243,-1.162540436,0.255630046,0.939248323,-2.047851563,0.809570313,-0.410644531
240,4223639393,-0.35475,-0.604509,0.269127,-0.660529,9.769882202,0.733910322,1.208716035,-0.994741619,0.159602284,0.946317911,-2.043945313,0.804199219,-0.412597656
241,4223647726,-0.354743,-0.604473,0.2692,-0.660536,9.764352798,0.723588765,1.213343859,-0.957882822,0.239979789,0.873880923,-2.041992188,0.8046875,-0.412597656
242,4223656059,-0.354745,-0.604431,0.269265,-0.660546,9.735369682,0.707681179,1.235990405,-0.970817924,0.404961079,0.73702389,-2.046875,0.806152344,-0.412109375
243,4223664392,-0.35474,-0.604398,0.269312,-0.66056,9.74070549,0.723567307,1.202972293,-0.675280929,0.409853339,0.66430521,-2.046386719,0.806640625,-0.411132813
244,4223672725,-0.354735,-0.604357,0.269369,-0.660577,9.759747505,0.729769051,1.23163414,-0.821794271,0.463720113,0.769374847,-2.047363281,0.805175781,-0.4140625
245,4223681058,-0.354735,-0.604316,0.269431,-0.660589,9.731092453,0.709332824,1.243084788,-0.913518786,0.411210924,0.75487715,-2.044921875,0.807128906,-0.415527344
246,4223689391,-0.354732,-0.604285,0.269482,-0.660598,9.767007828,0.705799401,1.245295405,-0.754889905,0.341258436,0.631954432,-2.047363281,0.802734375,-0.4140625
247,4223697724,-0.354725,-0.604262,0.269524,-0.660606,9.748473167,0.730333567,1.217878222,-0.598515034,0.286239088,0.569660664,-2.047363281,0.807617188,-0.412597656
248,4223706057,-0.354719,-0.604227,0.26958,-0.660619,9.738638878,0.72452575,1.250953555,-0.772435725,0.375632733,0.728238285,-2.045898438,0.805664063,-0.416015625
249,4223714390,-0.354705,-0.604202,0.269658,-0.660617,9.746871948,0.681744635,1.239365935,-0.933984518,0.021644026,0.891144812,-2.044433594,0.80859375,-0.409667969
250,4223722723,-0.35469,-0.604194,0.269698,-0.660616,9.722008705,0.715477407,1.222842932,-0.466191888,0.064342961,0.510286808,-2.047851563,0.810058594,-0.4140625
251,4223731056,-0.354678,-0.604193,0.269729,-0.660611,9.748437881,0.732243657,1.228636622,-0.404820174,0.012371674,0.382625431,-2.046875,0.80859375,-0.412109375
252,4223739389,-0.354658,-0.60418,0.269793,-0.660608,9.748251915,0.761548877,1.252369761,-0.687293947,-0.054443054,0.761485577,-2.046875,0.806640625,-0.410644531
253,4223747722,-0.354635,-0.604169,0.269875,-0.660596,9.725670815,0.722000837,1.225260496,-0.841209948,-0.23397325,0.90333724,-2.047363281,0.810546875,-0.412109375
254,4223756055,-0.354608,-0.604173,0.269946,-0.660578,9.719176292,0.714390337,1.200482845,-0.659707308,-0.39129582,0.754928291,-2.046386719,0.80859375,-0.409179688
255,4223764388,-0.354572,-0.604174,0.270027,-0.660564,9.736242294,0.744424999,1.248779058,-0.684988618,-0.415014625,0.955282986,-2.046386719,0.807128906,-0.412109375
256,4223772721,-0.35453,-0.604173,0.270132,-0.660544,9.732102394,0.742064476,1.214946508,-0.883754969,-0.583914876,1.175360322,-2.046875,0.810546875,-0.41015625
257,4223781054,-0.354485,-0.604189,0.270239,-0.66051,9.728317261,0.689705729,1.220103383,-0.829760492,-0.878017604,1.108942747,-2.045898438,0.807617188,-0.412597656
258,4223789387,-0.354424,-0.604231,0.270326,-0.660469,9.703117371,0.690392375,1.20226419,-0.432816535,-1.117126465,0.945318878,-2.048339844,0.80859375,-0.414550781
259,4223797720,-0.354359,-0.604297,0.270418,-0.660406,9.753958702,0.725606799,1.197389126,-0.41145426,-1.572265744,0.831105053,-2.047363281,0.809570313,-0.410644531
260,4223806053,-0.354305,-0.604347,0.270534,-0.660341,9.694973946,0.651483655,1.21547246,-0.797435105,-1.514966726,0.972341895,-2.045410156,0.812011719,-0.410644531
261,4223814386,-0.354218,-0.604463,0.270654,-0.660232,9.661615372,0.686021268,1.2657516,-0.396649271,-2.624319315,0.846883535,-2.047363281,0.8125,-0.413574219
262,4223822719,-0.354102,-0.604613,0.270761,-0.660113,9.719573975,0.716411173,1.257407665,0.085551552,-3.059377193,0.827519119,-2.044433594,0.809082031,-0.412597656
263,4223831052,-0.353959,-0.604791,0.270879,-0.659979,9.721074104,0.74755162,1.290226817,0.293359816,-3.589565754,0.989349842,-2.043945313,0.810546875,-0.413574219
264,4223839385,-0.353787,-0.604989,0.271029,-0.659827,9.716029167,0.74916172,1.218660116,0.267924905,-4.192039013,1.362344265,-2.045898438,0.808105469,-0.408203125
265,4223847718,-0.3536,-0.60522,0.271192,-0.659649,9.750094414,0.734138191,1.195781946,0.344754815,-4.828385353,1.355697513,-2.045410156,0.811523438,-0.41015625
266,4223856051,-0.353394,-0.605458,0.271369,-0.659468,9.717096329,0.668379307,1.211001992,0.394433588,-5.041918278,1.601376295,-2.045898438,0.809570313,-0.409179688
267,4223864384,-0.353186,-0.605748,0.271512,-0.659255,9.671244621,0.682478786,1.239967823,0.855848491,-5.637987614,0.979923844,-2.04296875,0.809082031,-0.407714844
268,4223872717,-0.35295,-0.606071,0.271667,-0.65902,9.662977219,0.703494966,1.21835804,1.057970405,-6.265741348,1.101668358,-2.045410156,0.811523438,-0.407714844
269,4223881050,-0.352692,-0.60644,0.271816,-0.658757,9.677721024,0.764927566,1.231981993,1.419438601,-6.990368843,0.956153929,-2.046875,0.810546875,-0.401855469
270,4223889383,-0.352376,-0.606824,0.272006,-0.658494,9.702484131,0.815585196,1.218526125,1.595331669,-7.529574394,1.765973568,-2.048339844,0.811523438,-0.404785156
271,4223897716,-0.352036,-0.607218,0.272217,-0.658225,9.709483147,0.878755867,1.159592271,1.636852026,-7.863377571,2.083282709,-2.041503906,0.810058594,-0.404785156
272,4223906049,-0.351665,-0.607579,0.272511,-0.657969,9.745116234,0.830353379,1.121279359,1.026106238,-7.977490425,3.247142076,-2.046875,0.809570313,-0.405761719
273,4223914382,-0.351273,-0.607934,0.272842,-0.657714,9.745480537,0.755632997,1.13715601,0.870551169,-8.163962364,3.782403469,-2.045410156,0.8125,-0.400390625
274,4223922715,-0.350865,-0.608278,0.273164,-0.657479,9.744283676,0.679454446,1.136016726,1.082508922,-7.918065071,3.968951702,-2.044921875,0.81640625,-0.3984375
275,4223931048,-0.350442,-0.608627,0.273461,-0.657258,9.75884819,0.651366293,1.068823457,1.511829138,-7.782846928,3.974406958,-2.042480469,0.8125,-0.396972656
276,4223939381,-0.350038,-0.608944,0.273738,-0.657065,9.80755806,0.654623747,1.021517396,1.480246782,-7.080247879,3.859066248,-2.048339844,0.812988281,-0.397949219
277,4223947714,-0.34968,-0.609206,0.274017,-0.656897,9.846841812,0.621607304,0.988050044,0.916272461,-6.235414028,3.804789782,-2.043457031,0.813964844,-0.397949219
278,4223956047,-0.349377,-0.609413,0.27427,-0.65676,9.861815453,0.550817609,0.947237432,0.533198774,-5.12599802,3.442463875,-2.044433594,0.813964844,-0.395507813
279,4223964380,-0.349134,-0.60958,0.274468,-0.656651,9.834504128,0.490759194,0.936294198,0.442524374,-4.051070213,2.726981401,-2.046386719,0.814941406,-0.397949219
280,4223972713,-0.348959,-0.609718,0.274601,-0.65656,9.850205421,0.513450801,0.940099955,0.383393914,-3.060299397,1.759570003,-2.041503906,0.817871094,-0.39453125
281,4223981046,-0.348851,-0.609807,0.274678,-0.656504,9.839298248,0.573580921,0.968031764,0.231936932,-1.805611491,1.044958353,-2.044433594,0.814941406,-0.399414063
282,4223989379,-0.348809,-0.609843,0.274742,-0.656465,9.832061768,0.582334399,0.955626965,-0.398442209,-0.877479613,0.615484416,-2.044433594,0.815917969,-0.395507813
283,4223997712,-0.348817,-0.609836,0.274793,-0.656446,9.865243912,0.611060202,0.944954932,-0.83406359,-0.064868055,0.320510954,-2.04296875,0.819335938,-0.395507813
284,4224006045,-0.348879,-0.60977,0.274836,-0.656457,9.842689514,0.531426847,0.944843531,-1.370066881,0.963940442,0.123844817,-2.044921875,0.816894531,-0.395019531
285,4224014378,-0.349001,-0.609683,0.274827,-0.656476,9.833837509,0.485233456,0.932141006,-1.487969279,1.689463615,-0.725331068,-2.04296875,0.813476563,-0.395507813
286,4224022711,-0.349158,-0.609597,0.274752,-0.656504,9.815049171,0.586900234,1.00904727,-1.147735357,2.212865114,-1.572496295,-2.04296875,0.814453125,-0.397460938
287,4224031044,-0.349309,-0.609514,0.274692,-0.656526,9.785491943,0.654982209,1.107928395,-1.242764235,2.02529192,-1.417248487,-2.043945313,0.812011719,-0.399902344
288,4224039377,-0.349449,-0.609425,0.274649,-0.656552,9.740310669,0.716749728,1.079184532,-1.309105158,2.003442764,-1.137310386,-2.044433594,0.816894531,-0.395996094
289,4224047710,-0.349569,-0.609356,0.274608,-0.65657,9.765361786,0.776603103,1.101452231,-1.087055206,1.672071576,-1.058136702,-2.04296875,0.814453125,-0.396484375
290,4224056043,-0.349659,-0.609277,0.274627,-0.656588,9.729979515,0.808140337,1.111104369,-1.438380122,1.35606873,-0.24032554,-2.043457031,0.813476563,-0.395507813
291,4224064376,-0.349702,-0.609197,0.274696,-0.656609,9.691950798,0.760282815,1.136549592,-1.493732452,0.969140112,0.618199527,-2.044433594,0.814941406,-0.396484375
292,4224072709,-0.349706,-0.609147,0.274774,-0.656621,9.703082085,0.75075525,1.100286126,-1.119879961,0.433021426,0.87904197,-2.043457031,0.814453125,-0.396484375
293,4224081042,-0.349693,-0.609113,0.274878,-0.656616,9.711321831,0.753752291,1.092031717,-1.212872505,-0.034387108,1.136170745,-2.043945313,0.813476563,-0.395507813
294,4224089375,-0.349661,-0.609077,0.275027,-0.656604,9.730975151,0.687471926,1.111456275,-1.495371938,-0.380051255,1.630679131,-2.043945313,0.815917969,-0.397460938
295,4224097708,-0.349606,-0.609053,0.275187,-0.656588,9.817594528,0.526154459,1.011998057,-1.359603524,-0.640074134,1.878765702,-2.041992188,0.814941406,-0.400390625
296,4224106041,-0.349552,-0.609052,0.275265,-0.656585,9.722981453,0.569244683,1.072339892,-0.459583372,-0.357126445,1.153460145,-2.043457031,0.816894531,-0.395507813
297,4224114374,-0.3495,-0.609101,0.275308,-0.65655,9.72027874,0.662195981,1.062476277,-0.042634897,-0.895563424,0.497377276,-2.044433594,0.815429688,-0.395507813
298,4224122707,-0.349419,-0.609131,0.275423,-0.656516,9.714881897,0.691558838,1.13449347,-0.546876729,-1.167945027,1.443874359,-2.045898438,0.81640625,-0.395996094
299,4224131040,-0.349313,-0.609183,0.275541,-0.656475,9.678163528,0.645864546,1.087871194,-0.274507761,-1.535471082,1.580129504,-2.043945313,0.817871094,-0.396484375
300,4224139373,-0.349183,-0.609278,0.275627,-0.65642,9.757146835,0.647653878,1.020361185,0.358394414,-1.98639679,1.289856076,-2.043945313,0.815429688,-0.3984375
301,4224147706,-0.349082,-0.609342,0.275719,-0.656376,9.810627937,0.611776531,0.990293503,-0.035181154,-1.529233932,1.260706902,-2.043457031,0.81640625,-0.396972656
302,4224156039,-0.348992,-0.609381,0.275825,-0.656344,9.772693634,0.586736381,1.016747832,-0.335482419,-1.217892766,1.417414904,-2.044921875,0.814941406,-0.395019531
303,4224164372,-0.348919,-0.609427,0.27588,-0.656316,9.763310432,0.604708552,1.022763729,0.042186651,-0.945383012,0.841273963,-2.041503906,0.815917969,-0.395996094
304,4224172705,-0.348849,-0.609472,0.275913,-0.656298,9.783401489,0.642597258,0.969603539,0.223535419,-0.740187407,0.674012959,-2.044433594,0.816894531,-0.396972656
305,4224181038,-0.348811,-0.609485,0.275972,-0.656281,9.804422379,0.646552742,0.970561683,-0.397955537,-0.446135938,0.728161454,-2.04296875,0.816894531,-0.395019531
306,4224189371,-0.348793,-0.609464,0.276029,-0.656286,9.820159912,0.627697706,0.961342096,-0.647745609,0.140494078,0.774446368,-2.043457031,0.818359375,-0.39453125
307,4224197704,-0.348789,-0.609441,0.276074,-0.656291,9.813850403,0.578457892,0.983688176,-0.671156943,0.256424099,0.548042178,-2.043945313,0.817871094,-0.395996094
308,4224206037,-0.3488,-0.609413,0.276095,-0.656302,9.80222702,0.592992127,1.028421402,-0.557711542,0.529727995,0.254298121,-2.043457031,0.814941406,-0.39453125
309,4224214370,-0.348824,-0.609368,0.276117,-0.656321,9.778759003,0.640143692,1.043134809,-0.741877913,0.795245111,0.271101058,-2.041503906,0.817871094,-0.392578125
310,4224222703,-0.34885,-0.609327,0.276133,-0.656339,9.79420948,0.655479372,1.018550515,-0.693966448,0.782835066,0.155952275,-2.040527344,0.820800781,-0.395507813
311,4224231036,-0.348873,-0.609285,0.276161,-0.656354,9.798744202,0.679820478,1.038328171,-0.785101891,0.71088469,0.289171875,-2.043945313,0.818359375,-0.396972656
312,4224239369,-0.348902,-0.609231,0.276191,-0.656376,9.762464523,0.66619432,1.051024437,-0.881027281,0.87174201,0.320395648,-2.041015625,0.817382813,-0.3984375
313,4224247702,-0.348933,-0.609169,0.276248,-0.656394,9.745927811,0.643920004,0.993064582,-1.200488091,0.801968932,0.54992485,-2.043457031,0.817871094,-0.395996094
314,4224256035,-0.348967,-0.609102,0.276305,-0.656414,9.746249199,0.616682351,1.026547432,-1.24797678,0.872971475,0.541267216,-2.041015625,0.819824219,-0.395507813
315,4224264368,-0.348991,-0.60905,0.27634,-0.656434,9.740476608,0.640687287,1.034594417,-0.885650694,0.800624192,0.396277845,-2.041015625,0.81640625,-0.397460938
316,4224272701,-0.349019,-0.608993,0.276377,-0.656457,9.772593498,0.597169399,1.053563714,-0.950198412,0.889505506,0.413285643,-2.043945313,0.818847656,-0.39453125
317,4224281034,-0.349056,-0.608935,0.276411,-0.656476,9.755569458,0.593321443,1.022170067,-1.019100785,0.889607966,0.287827134,-2.041503906,0.815917969,-0.3984375
318,4224289367,-0.349087,-0.608897,0.276411,-0.656495,9.772278786,0.680006444,1.032956362,-0.563192964,0.876519084,-0.018941727,-2.044921875,0.8203125,-0.395996094
319,4224297700,-0.349121,-0.608835,0.276454,-0.656516,9.777371407,0.679570496,1.044086337,-1.09584105,0.897497118,0.411518306,-2.041015625,0.817382813,-0.395996094
320,4224306033,-0.349149,-0.608765,0.276512,-0.656543,9.746199608,0.604844391,1.03658998,-1.180009484,0.928388059,0.651472449,-2.040527344,0.820800781,-0.395019531
321,4224314366,-0.349182,-0.608721,0.276543,-0.656552,9.79528904,0.622440398,1.042984605,-0.939543009,0.698448896,0.203044057,-2.041015625,0.817382813,-0.395996094
322,4224322699,-0.349215,-0.608661,0.276568,-0.65658,9.791828156,0.635236561,1.0115906,-0.874047339,1.020189404,0.287878364,-2.041992188,0.818847656,-0.396972656
323,4224331032,-0.349245,-0.608604,0.276619,-0.656595,9.769245148,0.637132347,1.059915423,-1.134211063,0.751649618,0.477090746,-2.043457031,0.817871094,-0.397949219
324,4224339365,-0.349267,-0.608549,0.276671,-0.656613,9.760583878,0.654091537,1.038056016,-1.03779912,0.72949338,0.553293109,-2.044921875,0.819824219,-0.394042969
325,4224347698,-0.349291,-0.608495,0.276735,-0.656623,9.757608414,0.643791974,1.06593132,-1.201960802,0.605085075,0.603983641,-2.044921875,0.813476563,-0.397460938
326,4224356031,-0.349312,-0.608434,0.2768,-0.656641,9.748660088,0.617583632,1.036182284,-1.172606826,0.711512208,0.695272744,-2.043945313,0.818847656,-0.396484375
327,4224364364,-0.349336,-0.608393,0.276845,-0.656648,9.762106895,0.634914935,1.066696286,-0.981114984,0.547914088,0.368819386,-2.044433594,0.819824219,-0.396484375
328,4224372697,-0.349348,-0.608342,0.276909,-0.656661,9.76449585,0.651616812,1.019244313,-1.066615105,0.547683537,0.708464086,-2.041015625,0.819335938,-0.396972656
329,4224381030,-0.349356,-0.608289,0.27698,-0.656676,9.756691933,0.596103609,1.048635364,-1.101975441,0.536041915,0.82141006,-2.042480469,0.817871094,-0.397949219
330,4224389363,-0.349364,-0.608254,0.277077,-0.656663,9.828492165,0.495069712,0.99919492,-1.359475374,0.017737854,0.839211941,-2.0390625,0.817871094,-0.395019531
331,4224397696,-0.349357,-0.608224,0.277122,-0.656676,9.7651968,0.555253744,1.007456422,-0.629188061,0.3886576,0.647386968,-2.042480469,0.819824219,-0.395996094
332,4224406029,-0.349353,-0.608245,0.277106,-0.656665,9.752436638,0.696829975,1.091938734,0.026497925,0.014356778,-0.210881993,-2.04296875,0.8203125,-0.3984375
333,4224414362,-0.349313,-0.608223,0.277221,-0.656658,9.767026901,0.697901607,1.117500782,-1.023352623,-0.324084103,1.39395225,-2.040527344,0.822753906,-0.395996094
334,4224422695,-0.349283,-0.608208,0.277345,-0.656636,9.774033546,0.543542862,1.012233615,-1.223271847,-0.506457448,1.284784555,-2.040039063,0.8203125,-0.3984375
335,4224431028,-0.349253,-0.608225,0.277395,-0.656614,9.760111809,0.605795741,1.06883502,-0.399620503,-0.454870433,0.55119276,-2.038574219,0.818847656,-0.393066406
336,4224439361,-0.349194,-0.608261,0.277457,-0.656586,9.816855431,0.679334044,1.02156198,-0.199086636,-0.832705975,0.798472524,-2.041015625,0.822265625,-0.394042969
337,4224447694,-0.349166,-0.608264,0.277552,-0.656558,9.819201469,0.586640537,1.062468648,-0.915798485,-0.588883996,0.928720891,-2.042480469,0.819824219,-0.397949219
338,4224456027,-0.349167,-0.608259,0.277646,-0.656523,9.673347473,0.458590209,1.07821238,-1.21397388,-0.449901193,0.642661154,-2.04296875,0.8203125,-0.395507813
339,4224464360,-0.349141,-0.608355,0.27764,-0.65645,9.756164551,0.62063086,1.058792591,0.261213958,-1.298090935,-0.498260856,-2.04296875,0.8203125,-0.393554688
340,4224472693,-0.349089,-0.60842,0.277672,-0.656404,9.782993317,0.790317595,1.063563347,0.083259061,-1.081432939,0.29060629,-2.041992188,0.819824219,-0.39453125
341,4224481026,-0.349017,-0.608446,0.277831,-0.656351,9.777508736,0.63552773,0.972465992,-1.104396224,-1.473266959,1.658880353,-2.04296875,0.818359375,-0.395507813
342,4224489359,-0.348973,-0.608474,0.277959,-0.656294,9.813650131,0.516719282,0.964298546,-1.064822078,-1.262487173,1.106150627,-2.04296875,0.822265625,-0.395019531
343,4224497692,-0.348926,-0.608528,0.278024,-0.656242,9.756700516,0.548651576,1.033357024,-0.335226268,-1.175142646,0.548195839,-2.041503906,0.820800781,-0.392578125
344,4224506025,-0.348875,-0.608605,0.278078,-0.656174,9.763865471,0.611382186,1.024594545,-0.141326547,-1.470961452,0.308241665,-2.040527344,0.821289063,-0.393066406
345,4224514358,-0.348809,-0.608685,0.278161,-0.6561,9.770703316,0.658894479,1.029906988,-0.304079384,-1.753179073,0.659899533,-2.041503906,0.821289063,-0.392578125
346,4224522691,-0.348727,-0.608774,0.278264,-0.656018,9.771335602,0.694836199,1.045560718,-0.319665641,-2.054082394,0.883806348,-2.043945313,0.822265625,-0.393554688
347,4224531024,-0.348636,-0.608849,0.278412,-0.655934,9.786678314,0.650106907,1.049282193,-0.730646074,-2.186123848,1.403544903,-2.0390625,0.821289063,-0.393554688
348,4224539357,-0.348521,-0.608942,0.278568,-0.655842,9.747552872,0.563416898,1.027939439,-0.550974965,-2.557081699,1.576658726,-2.041503906,0.822753906,-0.393554688
349,4224547690,-0.348389,-0.609076,0.278707,-0.655729,9.779462814,0.601150274,1.019227147,-0.138867572,-3.080304146,1.327713966,-2.045410156,0.818359375,-0.395507813
350,4224556023,-0.348231,-0.609221,0.27885,-0.655617,9.755247116,0.645797849,1.059002042,0.101073772,-3.292031527,1.544051766,-2.039550781,0.818847656,-0.393066406
351,4224564356,-0.348037,-0.609368,0.279043,-0.655501,9.731330872,0.591452539,1.047451258,-0.042276293,-3.724962711,2.277976513,-2.039550781,0.818847656,-0.390625
352,4224572689,-0.347831,-0.609537,0.279215,-0.655381,9.761903763,0.523174405,1.057467103,0.322214305,-3.898077011,2.100559473,-2.041015625,0.821777344,-0.392578125
353,4224581022,-0.347607,-0.60973,0.279347,-0.655263,9.758690834,0.516603351,1.044901729,0.953733265,-3.974304438,1.840882421,-2.0390625,0.823242188,-0.391601563
354,4224589355,-0.347385,-0.609938,0.279445,-0.655145,9.777496338,0.578695059,0.974197149,1.332554936,-3.942555904,1.491849899,-2.041503906,0.821777344,-0.393554688
355,4224597688,-0.347166,-0.610127,0.279545,-0.655044,9.806893349,0.548983634,0.982518137,1.250128269,-3.622710705,1.621380925,-2.04296875,0.823730469,-0.391113281
356,4224606021,-0.346952,-0.610302,0.279637,-0.654954,9.80357933,0.553395689,0.960771322,1.261039972,-3.351737738,1.614593267,-2.041015625,0.8203125,-0.390136719
357,4224614354,-0.34677,-0.610456,0.279716,-0.654873,9.828207016,0.519223034,0.919801891,1.038631558,-2.901823759,1.35852778,-2.041503906,0.825195313,-0.389648438
358,4224622687,-0.346632,-0.610575,0.279769,-0.654812,9.826558113,0.509252131,0.892010629,0.8178882,-2.119565248,0.963940561,-2.040527344,0.822753906,-0.392089844
359,4224631020,-0.346541,-0.610666,0.279801,-0.654763,9.830166817,0.535468996,0.887975395,0.52192837,-1.486368299,0.525155842,-2.043457031,0.822265625,-0.390136719
360,4224639353,-0.346471,-0.610728,0.27982,-0.654733,9.798341751,0.549545527,0.947572887,0.407855481,-0.923995018,0.429858059,-2.040527344,0.826660156,-0.391601563
361,4224647686,-0.34644,-0.610764,0.279821,-0.654716,9.796333313,0.551777482,0.935198426,0.151175201,-0.346534967,0.100817621,-2.041015625,0.822753906,-0.391113281
362,4224656019,-0.346443,-0.610775,0.279821,-0.654704,9.838184357,0.555876195,0.895871878,-0.209357962,0.046541065,-0.107720673,-2.041015625,0.827148438,-0.38671875
363,4224664352,-0.346468,-0.61076,0.27983,-0.654701,9.840803146,0.551097691,0.879606545,-0.574745059,0.41008392,-0.071783885,-2.043457031,0.821289063,-0.389648438
364,4224672685,-0.346514,-0.610725,0.279832,-0.654709,9.862139702,0.580581963,0.919962883,-0.741929173,0.796321034,-0.203261778,-2.0390625,0.822265625,-0.389160156
365,4224681018,-0.346561,-0.61068,0.279827,-0.654728,9.814265251,0.658104479,0.948982,-0.681325853,1.010942578,-0.179286823,-2.041015625,0.824707031,-0.388671875
366,4224689351,-0.346608,-0.610607,0.279868,-0.654754,9.794381142,0.664928734,0.965211987,-1.205034494,1.102436662,0.355679244,-2.038574219,0.825683594,-0.390625
367,4224697684,-0.346649,-0.61053,0.279932,-0.654776,9.78651619,0.601840496,0.98328799,-1.398498654,0.971701443,0.596171319,-2.041015625,0.823730469,-0.385742188
368,4224706017,-0.346682,-0.61046,0.279988,-0.6548,9.771477699,0.600602746,0.973394632,-1.22150445,0.941784143,0.571248651,-2.041503906,0.823242188,-0.390625
369,4224714350,-0.346703,-0.610397,0.280039,-0.654826,9.748267174,0.634492695,0.977922082,-1.029346347,0.866068363,0.640944898,-2.040527344,0.823730469,-0.390625
370,4224722683,-0.346721,-0.610321,0.280111,-0.654857,9.755844116,0.613084376,0.996024489,-1.246401548,0.918910742,0.899469435,-2.041992188,0.822753906,-0.390136719
371,4224731016,-0.346739,-0.610247,0.280199,-0.654878,9.753006935,0.533160806,0.98376894,-1.408104181,0.734898031,0.991936982,-2.041503906,0.821777344,-0.387695313
372,4224739349,-0.346768,-0.610178,0.280265,-0.654899,9.757390976,0.502088428,1.002417922,-1.282658577,0.847101271,0.680506229,-2.041503906,0.824707031,-0.390136719
373,4224747682,-0.346794,-0.610125,0.280297,-0.654921,9.762865067,0.555639982,0.955398083,-0.882704973,0.847037137,0.372123599,-2.0390625,0.826171875,-0.392578125
374,4224756015,-0.346831,-0.610062,0.280341,-0.654941,9.781291962,0.535432875,0.946828783,-1.113079309,0.912916899,0.403910816,-2.0390625,0.824707031,-0.387695313
375,4224764348,-0.346887,-0.609986,0.280385,-0.654964,9.787496567,0.50017935,0.979954064,-1.338715196,1.126232266,0.290183663,-2.041503906,0.824707031,-0.386230469
376,4224772681,-0.346955,-0.60991,0.280403,-0.65499,9.779393196,0.496613085,0.977081299,-1.198195338,1.320464969,-0.02193859,-2.041015625,0.825195313,-0.389160156
377,4224781014,-0.347035,-0.609844,0.280385,-0.655018,9.760798454,0.530888557,0.978677213,-0.913313925,1.468105435,-0.455357045,-2.040527344,0.827636719,-0.388183594
378,4224789347,-0.347125,-0.609767,0.280381,-0.655043,9.788622856,0.529058635,0.976366103,-1.180880427,1.514595389,-0.412530094,-2.038574219,0.826660156,-0.390136719
379,4224797680,-0.347232,-0.609685,0.28036,-0.655071,9.787528992,0.527951896,0.959339857,-1.19112587,1.7285254,-0.652125597,-2.042480469,0.822753906,-0.391113281
380,4224806013,-0.347339,-0.609602,0.280336,-0.655102,9.785307884,0.552550912,0.981152356,-1.15378046,1.784620762,-0.67556268,-2.041992188,0.823242188,-0.390136719
381,4224814346,-0.347465,-0.609513,0.280313,-0.655128,9.774737358,0.579380214,0.994072556,-1.361921668,1.856980801,-0.834832013,-2.041503906,0.823242188,-0.392578125
382,4224822679,-0.347576,-0.609441,0.280282,-0.65515,9.785935402,0.584263265,0.973200381,-1.11359179,1.655422568,-0.856066227,-2.038574219,0.824707031,-0.390136719
383,4224831012,-0.347675,-0.609359,0.280266,-0.65518,9.817370415,0.649667621,1.000792742,-1.154523373,1.683623672,-0.533429265,-2.039550781,0.821777344,-0.391113281
384,4224839345,-0.347757,-0.609277,0.280271,-0.655211,9.818744659,0.648617089,0.99116981,-1.201755762,1.536674738,-0.214608848,-2.04296875,0.822753906,-0.391601563
385,4224847678,-0.347836,-0.609187,0.280297,-0.655241,9.80209446,0.573238969,0.972873569,-1.407361269,1.492285371,0.02200263,-2.044433594,0.825195313,-0.392089844
386,4224856011,-0.347908,-0.609105,0.280311,-0.655273,9.775351524,0.572341025,0.988808572,-1.200219154,1.458346605,-0.031492706,-2.038574219,0.822265625,-0.391113281
387,4224864344,-0.347979,-0.609036,0.280319,-0.655296,9.77970314,0.582579195,0.98131007,-1.100092888,1.291495442,-0.168605685,-2.04296875,0.823242188,-0.391113281
388,4224872677,-0.348049,-0.60895,0.280339,-0.65533,9.787011147,0.574500382,1.011783361,-1.25822258,1.475597739,0.045939136,-2.04296875,0.820800781,-0.391601563
389,4224881010,-0.348128,-0.608872,0.280354,-0.655354,9.775180817,0.559953094,0.977823436,-1.263204336,1.38357842,-0.132643312,-2.038085938,0.819335938,-0.391113281
390,4224889343,-0.3482,-0.6088,0.280366,-0.655378,9.778165817,0.53427285,0.973980963,-1.168329358,1.316699743,-0.142965853,-2.037597656,0.822753906,-0.392089844
391,4224897676,-0.34828,-0.608732,0.280355,-0.655404,9.758226395,0.560165703,0.991892934,-0.990630567,1.435844302,-0.391001284,-2.039550781,0.822265625,-0.392578125
392,4224906009,-0.348338,-0.608675,0.28035,-0.655428,9.773065567,0.576562405,0.995940387,-0.812624335,1.205329061,-0.218579069,-2.040527344,0.821777344,-0.391601563
393,4224914342,-0.348401,-0.608625,0.280327,-0.655451,9.743602753,0.580832303,1.027527332,-0.668467402,1.237602949,-0.426540971,-2.040527344,0.821289063,-0.393554688
394,4224922675,-0.348451,-0.608577,0.280327,-0.655468,9.765640259,0.583671987,1.013500571,-0.776687622,1.016731381,-0.156592622,-2.038574219,0.822753906,-0.394042969
395,4224931008,-0.348502,-0.608533,0.280316,-0.655487,9.784646034,0.562327921,0.977800786,-0.662217557,1.053923249,-0.263839394,-2.041992188,0.821777344,-0.391113281
396,4224939341,-0.348555,-0.608487,0.280305,-0.655506,9.77524662,0.552936196,1.00051105,-0.68568027,1.070470095,-0.284843057,-2.039550781,0.824707031,-0.392089844
397,4224947674,-0.348604,-0.608448,0.280296,-0.65552,9.835022926,0.538094044,0.971470535,-0.656198323,0.942501366,-0.268373162,-2.036621094,0.821777344,-0.393554688
398,4224956007,-0.348672,-0.6084,0.280261,-0.655543,9.805081367,0.586812079,1.00510323,-0.596952498,1.304404855,-0.588115633,-2.041503906,0.820800781,-0.389648438
399,4224964340,-0.348732,-0.60835,0.280249,-0.655563,9.787049294,0.610695422,1.04560256,-0.754198372,1.145007491,-0.322316706,-2.044433594,0.827148438,-0.391601563
400,4224972673,-0.348782,-0.608296,0.280248,-0.655587,9.795174599,0.59409368,0.996298015,-0.787317574,1.133071303,-0.115456171,-2.042480469,0.823242188,-0.390136719
401,4224981006,-0.34883,-0.608239,0.280246,-0.655615,9.830438614,0.565196216,0.982493043,-0.736934423,1.187450528,-0.058669411,-2.039550781,0.823242188,-0.391113281
402,4224989339,-0.34888,-0.608172,0.280244,-0.655651,9.772070885,0.563629746,1.008965731,-0.780376017,1.350843549,-0.026805297,-2.040527344,0.82421875,-0.395019531
403,4224997672,-0.348928,-0.608112,0.280241,-0.655684,9.753738403,0.613163173,1.056467772,-0.731875479,1.259720922,-0.032991134,-2.042480469,0.825683594,-0.392089844
404,4225006005,-0.348967,-0.608051,0.280257,-0.655712,9.750405312,0.640887856,1.035095096,-0.85569483,1.107367635,0.177084029,-2.041503906,0.8203125,-0.392578125
405,4225014338,-0.348996,-0.608001,0.28027,-0.655738,9.776619911,0.654499412,1.046303511,-0.682875514,0.953938067,0.186305121,-2.038085938,0.820800781,-0.392089844
406,4225022671,-0.349013,-0.607932,0.280334,-0.655765,9.780518532,0.585689068,0.998172104,-1.158288479,0.856130183,0.803492963,-2.0390625,0.822265625,-0.393554688
407,4225031004,-0.349038,-0.607873,0.280389,-0.655783,9.778216362,0.55551815,1.014930844,-1.11100471,0.750394642,0.577447355,-2.041992188,0.823242188,-0.393066406
408,4225039337,-0.349056,-0.607832,0.280414,-0.655801,9.766249657,0.564523518,1.016068339,-0.696899235,0.725241423,0.315592945,-2.0390625,0.823242188,-0.395507813
409,4225047670,-0.349072,-0.607795,0.280448,-0.655812,9.789831161,0.561305046,1.039958954,-0.769848585,0.555342197,0.355090082,-2.041992188,0.823730469,-0.39453125
410,4225056003,-0.349097,-0.607753,0.280486,-0.655821,9.793343544,0.544760525,1.012878299,-0.915900946,0.614715993,0.316284537,-2.04296875,0.827636719,-0.392089844
411,4225064336,-0.349119,-0.607726,0.280491,-0.655832,9.782793045,0.551190913,1.042576909,-0.522696853,0.644838333,0.032453235,-2.039550781,0.823730469,-0.39453125
412,4225072669,-0.349142,-0.607693,0.28051,-0.655842,9.774159431,0.5308128,1.025896668,-0.669620097,0.62129885,0.151047125,-2.041015625,0.823730469,-0.393066406
413,4225081002,-0.349165,-0.607667,0.280502,-0.655858,9.769431114,0.561197758,1.013801098,-0.381946653,0.739201188,-0.073935494,-2.0390625,0.824707031,-0.395507813
414,4225089335,-0.34919,-0.607648,0.280498,-0.655864,9.78904438,0.582734942,1.005181909,-0.439399421,0.58397907,-0.126982585,-2.040039063,0.825195313,-0.390625
415,4225097668,-0.34922,-0.607613,0.280513,-0.655874,9.774038315,0.566433966,1.021640658,-0.706171632,0.693505406,0.062114514,-2.041992188,0.825195313,-0.393554688
416,4225106001,-0.349256,-0.607589,0.280495,-0.655884,9.783887863,0.556598485,1.009766817,-0.417473614,0.764584959,-0.312660158,-2.041992188,0.823730469,-0.395996094
417,4225114334,-0.349292,-0.607551,0.280501,-0.655898,9.816396713,0.563593984,0.96020478,-0.679199874,0.801443815,-0.027573723,-2.041992188,0.823242188,-0.393554688
418,4225122667,-0.349346,-0.607493,0.280507,-0.65592,9.814544678,0.56219238,1.010661006,-0.890799046,1.140063763,-0.080646411,-2.041015625,0.826660156,-0.397460938
419,4225131000,-0.349403,-0.60744,0.28051,-0.655938,9.760433197,0.541613281,1.055495024,-0.887174606,1.087234497,-0.175739259,-2.041015625,0.8203125,-0.394042969
420,4225139333,-0.349462,-0.607387,0.280505,-0.655958,9.7807827,0.566848814,1.05676806,-0.830900192,1.135210156,-0.258063436,-2.039550781,0.824707031,-0.393554688
421,4225147666,-0.349512,-0.607348,0.280491,-0.655974,9.770860672,0.572255611,1.040330887,-0.605866313,0.981204629,-0.304002613,-2.0390625,0.829101563,-0.393554688
422,4225155999,-0.349555,-0.607304,0.280481,-0.655995,9.760004997,0.608220935,1.04823482,-0.588589489,1.038823605,-0.183449149,-2.041503906,0.823242188,-0.395507813
423,4225164332,-0.349581,-0.607261,0.280497,-0.656014,9.760004044,0.618649364,1.039644241,-0.698718011,0.805029869,0.188059732,-2.040039063,0.823242188,-0.393554688
424,4225172665,-0.349596,-0.607225,0.280521,-0.656029,9.741943359,0.600967884,1.074972391,-0.657120347,0.648782909,0.298175305,-2.043457031,0.824707031,-0.395507813
425,4225180998,-0.349601,-0.607199,0.280546,-0.65604,9.736922264,0.647546887,1.041146398,-0.546261966,0.467767179,0.336468607,-2.0390625,0.822265625,-0.396484375
426,4225189331,-0.349607,-0.607161,0.280599,-0.656049,9.788193703,0.577234089,1.05715394,-0.874047399,0.423710704,0.602831066,-2.043945313,0.823242188,-0.393554688
427,4225197664,-0.349609,-0.607134,0.280634,-0.656058,9.751263618,0.571863055,1.059365153,-0.626857221,0.405639857,0.458123356,-2.041015625,0.823242188,-0.394042969
428,4225205997,-0.349601,-0.607116,0.280671,-0.656063,9.779094696,0.629758,1.038493037,-0.528857112,0.244705617,0.492241591,-2.041015625,0.824707031,-0.396484375
429,4225214330,-0.349596,-0.607077,0.280746,-0.65607,9.75717926,0.600187719,1.028149486,-0.985584438,0.268603653,0.880783737,-2.041015625,0.82421875,-0.393066406
430,4225222663,-0.349592,-0.607042,0.280823,-0.656072,9.757101059,0.556369483,1.033943295,-1.016667366,0.186804622,0.846371114,-2.041503906,0.822753906,-0.394042969
431,4225230996,-0.349586,-0.607014,0.280885,-0.656074,9.775948524,0.571340322,1.017405748,-0.844744742,0.195590302,0.724498689,-2.041992188,0.826660156,-0.397949219
432,4225239329,-0.349581,-0.606982,0.280952,-0.656078,9.763465881,0.562692881,1.032120109,-0.897100091,0.22258769,0.760845244,-2.041015625,0.823242188,-0.395507813
433,4225247662,-0.349585,-0.606949,0.281017,-0.656078,9.79147625,0.539789557,1.054422617,-0.970356882,0.250840187,0.670426965,-2.040039063,0.829101563,-0.394042969
434,4225255995,-0.349591,-0.606926,0.28106,-0.656078,9.794530869,0.557020485,1.02015996,-0.745207727,0.267745584,0.414284617,-2.0390625,0.823730469,-0.393066406
435,4225264328,-0.349601,-0.606904,0.281109,-0.656072,9.813821793,0.547085345,1.021862507,-0.855630696,0.203556314,0.402117878,-2.038574219,0.825683594,-0.395996094
436,4225272661,-0.349616,-0.606869,0.281156,-0.656076,9.797142029,0.482931346,1.006819844,-0.887315512,0.41528362,0.43288061,-2.041503906,0.825683594,-0.397949219
437,4225280994,-0.349643,-0.606854,0.281159,-0.656075,9.77527523,0.538051128,1.025059581,-0.533224404,0.461004943,-0.13950792,-2.040039063,0.825683594,-0.395996094
438,4225289327,-0.349674,-0.606831,0.28118,-0.65607,9.802598953,0.521126986,1.018571854,-0.779710054,0.431574225,-0.012717467,-2.039550781,0.826171875,-0.39453125
439,4225297660,-0.349717,-0.606794,0.281197,-0.656074,9.777328491,0.513853073,1.014773846,-0.865441024,0.693146884,-0.061307672,-2.0390625,0.82421875,-0.39453125
440,4225305993,-0.349772,-0.606781,0.281156,-0.656075,9.762693405,0.550890505,1.060566306,-0.338645816,0.778455019,-0.755696774,-2.042480469,0.825195313,-0.395507813
441,4225314326,-0.349823,-0.606759,0.281161,-0.656066,9.769044876,0.558329463,1.037820339,-0.813751459,0.542099714,-0.349006772,-2.0390625,0.824707031,-0.395019531
442,4225322659,-0.349878,-0.606744,0.281143,-0.656058,9.7709198,0.543622971,1.03066051,-0.598284483,0.619685173,-0.608863175,-2.041503906,0.821777344,-0.393554688
443,4225330992,-0.349929,-0.606734,0.281119,-0.656051,9.789916992,0.597999156,1.025123954,-0.476309478,0.583492219,-0.625384331,-2.038085938,0.825195313,-0.395507813
444,4225339325,-0.349972,-0.606706,0.281111,-0.656056,9.769367218,0.624192834,1.040152073,-0.606954873,0.735538304,-0.298815697,-2.0390625,0.823730469,-0.395996094
445,4225347658,-0.350016,-0.606673,0.281127,-0.656057,9.775697708,0.617469192,1.052784085,-0.858665943,0.64802736,-0.097513393,-2.041015625,0.820800781,-0.393066406
446,4225355991,-0.350058,-0.606632,0.281166,-0.656056,9.783408165,0.600609899,1.020481825,-1.092344642,0.580994904,0.120117947,-2.039550781,0.823730469,-0.395019531
447,4225364324,-0.350114,-0.60658,0.281203,-0.656058,9.781907082,0.564359009,1.024966598,-1.253970504,0.770540178,0.042071376,-2.038085938,0.822265625,-0.395019531
448,4225372657,-0.350163,-0.606528,0.281247,-0.656061,9.779809952,0.559738576,1.040588498,-1.238268971,0.720157087,0.158974752,-2.0390625,0.824707031,-0.395019531
449,4225380990,-0.350216,-0.606474,0.281295,-0.656062,9.811340332,0.530533135,1.027591467,-1.316277027,0.702342272,0.169489384,-2.040527344,0.823730469,-0.39453125
450,4225389323,-0.350263,-0.606436,0.281318,-0.656062,9.785668373,0.550668776,1.068134069,-0.983189523,0.66176939,-0.063587338,-2.038085938,0.82421875,-0.397460938
451,4225397656,-0.350313,-0.606391,0.281357,-0.656061,9.796212196,0.517658412,1.045051813,-1.186566591,0.64926964,0.070464753,-2.041015625,0.82421875,-0.396484375
452,4225405989,-0.350364,-0.606352,0.281367,-0.656065,9.75770092,0.509240031,1.055917025,-0.880425274,0.770194411,-0.182770371,-2.039550781,0.823730469,-0.396484375
453,4225414322,-0.35041,-0.60634,0.281352,-0.656058,9.755827904,0.538816988,1.054865241,-0.533723772,0.541805089,-0.498299271,-2.040039063,0.82421875,-0.395507813
454,4225422655,-0.350458,-0.606325,0.281342,-0.65605,9.793200493,0.548494279,1.048056006,-0.609785318,0.551500082,-0.475771606,-2.038574219,0.823730469,-0.393554688
455,4225430988,-0.350512,-0.606307,0.281339,-0.656039,9.770282745,0.536026895,1.041761518,-0.746923923,0.536336541,-0.4641684,-2.040039063,0.825195313,-0.395507813
456,4225439321,-0.350563,-0.606298,0.281309,-0.656033,9.792556763,0.559881628,1.03790617,-0.420713812,0.628317118,-0.688100815,-2.041503906,0.823242188,-0.396484375
457,4225447654,-0.35061,-0.606283,0.281271,-0.656038,9.769789696,0.58553195,1.034393907,-0.303836048,0.777558565,-0.628598928,-2.041992188,0.826660156,-0.396484375
458,4225455987,-0.350659,-0.606252,0.281263,-0.656044,9.78216362,0.597305298,1.048270583,-0.655993402,0.801597595,-0.341706723,-2.042480469,0.825683594,-0.396484375
459,4225464320,-0.350714,-0.60622,0.281262,-0.656045,9.768129349,0.573129117,1.068648934,-0.797076583,0.760717213,-0.346778333,-2.041503906,0.825683594,-0.396484375
460,4225472653,-0.350768,-0.606187,0.281244,-0.656054,9.780925751,0.567399263,1.040202141,-0.603215218,0.915055692,-0.439130425,-2.039550781,0.825683594,-0.396972656
461,4225480986,-0.350812,-0.606159,0.281227,-0.656064,9.788686752,0.581433117,1.055852652,-0.50696975,0.82511127,-0.36601457,-2.038574219,0.826171875,-0.39453125
462,4225489319,-0.35086,-0.606119,0.281221,-0.656078,9.77546978,0.598528862,1.035910487,-0.681069613,0.95105648,-0.229516342,-2.040527344,0.823242188,-0.395507813
463,4225497652,-0.350918,-0.606065,0.281226,-0.656094,9.769703865,0.589386761,1.049257636,-0.922611952,1.054947853,-0.167606741,-2.037597656,0.827148438,-0.392578125
464,4225505985,-0.350979,-0.606014,0.28123,-0.656108,9.750677109,0.586490214,1.05170393,-0.934112608,1.038733959,-0.233281642,-2.04296875,0.823242188,-0.395996094
465,4225514318,-0.35103,-0.60598,0.281219,-0.656116,9.770234108,0.584688127,1.050302029,-0.663985014,0.866888165,-0.342270195,-2.042480469,0.822753906,-0.393066406
466,4225522651,-0.351079,-0.605922,0.281239,-0.656134,9.761478424,0.592948914,1.038835883,-0.997392714,1.015156031,0.049166519,-2.036621094,0.82421875,-0.399414063
467,4225530984,-0.351128,-0.605858,0.28127,-0.656154,9.750648499,0.583364427,1.050187588,-1.114590645,1.026285529,0.193131328,-2.042480469,0.825195313,-0.395996094
468,4225539317,-0.351157,-0.605823,0.281285,-0.656165,9.784739494,0.6176548,1.050430655,-0.696719944,0.697552443,0.071796693,-2.041992188,0.821777344,-0.395996094
469,4225547650,-0.35117,-0.605767,0.28132,-0.656194,9.810131073,0.622297347,1.034694552,-0.785857499,0.859255075,0.55360043,-2.041503906,0.820800781,-0.397460938
470,4225555983,-0.351199,-0.605699,0.281378,-0.656217,9.747415543,0.562929153,1.07696104,-1.199143171,0.884433925,0.626037478,-2.040527344,0.823730469,-0.396972656
471,4225564316,-0.351218,-0.605648,0.281427,-0.656233,9.728474617,0.539388478,1.08551538,-0.985136211,0.677470922,0.530086577,-2.040527344,0.825683594,-0.396484375
472,4225572649,-0.351242,-0.605609,0.281446,-0.656248,9.763745308,0.553043187,1.0699507,-0.688753963,0.714047968,0.187829182,-2.040527344,0.822753906,-0.397460938
473,4225580982,-0.351257,-0.605574,0.281462,-0.656265,9.7677145,0.587083876,1.097739697,-0.57117188,0.679788947,0.245474041,-2.041992188,0.824707031,-0.399414063
474,4225589315,-0.351283,-0.605529,0.281497,-0.656278,9.810560226,0.537658215,1.021154523,-0.893104315,0.697424352,0.31187889,-2.040527344,0.825683594,-0.3984375
475,4225597648,-0.351313,-0.605482,0.281518,-0.656296,9.782635689,0.512014806,1.046181917,-0.789827824,0.838302732,0.220000669,-2.041015625,0.826171875,-0.395019531
476,4225605981,-0.351344,-0.605455,0.281507,-0.65631,9.771263123,0.563293517,1.071267009,-0.428449333,0.773076117,-0.188981831,-2.040039063,0.825683594,-0.399414063
477,4225614314,-0.351366,-0.605431,0.281505,-0.656321,9.787041664,0.622740805,1.086566925,-0.446660995,0.648642063,-0.042109799,-2.038085938,0.824707031,-0.396972656
478,4225622647,-0.351405,-0.60538,0.281533,-0.656334,9.78842926,0.580195725,1.064900994,-0.955385327,0.828005731,0.165877774,-2.040039063,0.822753906,-0.396484375
479,4225630980,-0.351431,-0.605335,0.281562,-0.65635,9.783437729,0.560546458,1.050924063,-0.836151063,0.745796859,0.294525266,-2.041015625,0.824707031,-0.396484375
480,4225639313,-0.351454,-0.605295,0.281578,-0.656367,9.789423943,0.549732089,1.015310526,-0.664420545,0.751752257,0.175047696,-2.043457031,0.823242188,-0.396484375
481,4225647646,-0.351484,-0.605255,0.281578,-0.656387,9.790203094,0.574008465,1.069764853,-0.561579347,0.888890862,0.013473089,-2.0390625,0.826171875,-0.395996094
482,4225655979,-0.351519,-0.605216,0.281593,-0.6564,9.772622108,0.566526592,1.063763618,-0.752751172,0.767850757,0.041533481,-2.04296875,0.822753906,-0.397949219
483,4225664312,-0.351558,-0.605172,0.281606,-0.656413,9.765318871,0.558386683,1.01722014,-0.811151624,0.844411671,0.019633312,-2.040039063,0.825195313,-0.396484375
484,4225672645,-0.351593,-0.605127,0.281619,-0.65643,9.767214775,0.553350687,1.072189689,-0.758091688,0.854439616,0.066904381,-2.038085938,0.823730469,-0.3984375
485,4225680978,-0.351633,-0.605093,0.281627,-0.656436,9.769459724,0.56403029,1.082053423,-0.742441416,0.716532707,-0.09939605,-2.044433594,0.822265625,-0.399902344
486,4225689311,-0.351671,-0.605061,0.281629,-0.656445,9.767494202,0.58065325,1.089156151,-0.646669805,0.743811786,-0.140686199,-2.039550781,0.822753906,-0.399414063
487,4225697644,-0.35169,-0.605033,0.281647,-0.656453,9.746492386,0.580711246,1.080043793,-0.624590278,0.552319705,0.153685391,-2.0390625,0.827148438,-0.396484375
488,4225705977,-0.351706,-0.604996,0.281671,-0.656468,9.763666153,0.584823906,1.07284081,-0.659579337,0.65431565,0.297791064,-2.038085938,0.825683594,-0.3984375
489,4225714310,-0.351719,-0.604972,0.281697,-0.656472,9.752758026,0.576075673,1.068112612,-0.650588751,0.424658358,0.238468513,-2.040527344,0.825195313,-0.3984375
490,4225722643,-0.351731,-0.604945,0.281721,-0.65648,9.733732224,0.538966715,1.066610456,-0.604598403,0.475720376,0.253901094,-2.042480469,0.825195313,-0.397460938
491,4225730976,-0.351733,-0.604938,0.281725,-0.656483,9.743460655,0.548795283,1.059794068,-0.291682094,0.322918653,0.085449077,-2.038085938,0.82421875,-0.397460938
492,4225739309,-0.351734,-0.604928,0.281749,-0.656482,9.772550583,0.524954319,1.076009274,-0.46921435,0.209191442,0.247638404,-2.040527344,0.823730469,-0.397949219
493,4225747642,-0.351743,-0.604937,0.281761,-0.656464,9.754868507,0.504118085,1.044222116,-0.413657069,-0.006877422,-0.078699738,-2.037109375,0.825683594,-0.394042969
494,4225755975,-0.351748,-0.60496,0.281738,-0.65645,9.778286934,0.567649603,1.067440271,0.035693437,0.054904114,-0.373506814,-2.039550781,0.823730469,-0.399414063
495,4225764308,-0.351757,-0.604968,0.281738,-0.656438,9.76154232,0.609350324,1.066424727,-0.261790276,0.110346124,-0.132284716,-2.041015625,0.824707031,-0.398925781
496,4225772641,-0.351753,-0.604976,0.281752,-0.656427,9.753137589,0.578693628,1.047040343,-0.296484739,-0.006096188,0.090302974,-2.0390625,0.822753906,-0.395996094
497,4225780974,-0.351752,-0.604984,0.281756,-0.656418,9.769052505,0.583407104,1.080186486,-0.227672115,0.075997427,-0.009285158,-2.038574219,0.822265625,-0.397460938
498,4225789307,-0.351754,-0.604987,0.28177,-0.656408,9.779681206,0.615530968,1.091309547,-0.36591211,0.069517031,0.065188222,-2.041992188,0.825195313,-0.396972656
499,4225797640,-0.351752,-0.604983,0.281803,-0.656399,9.758730888,0.596461415,1.079800844,-0.517804563,0.042314708,0.295434594,-2.040527344,0.823242188,-0.399414063
500,4225805973,-0.351752,-0.604983,0.281841,-0.656383,9.769861221,0.574995577,1.095972896,-0.610246301,-0.077060431,0.265875727,-2.041015625,0.825195313,-0.395019531
501,4225814306,-0.351753,-0.604977,0.281874,-0.656373,9.78775692,0.574323237,1.097482204,-0.563397944,0.0597324,0.252402693,-2.036621094,0.826660156,-0.400390625
502,4225822639,-0.351753,-0.604974,0.281902,-0.656364,9.763365746,0.544180989,1.106823325,-0.492254347,0.063356809,0.231898472,-2.041503906,0.824707031,-0.3984375
503,4225830972,-0.351761,-0.604976,0.281939,-0.656342,9.768208504,0.55756408,1.104928493,-0.666085362,-0.106747322,0.15857771,-2.042480469,0.825683594,-0.398925781
504,4225839305,-0.351765,-0.60498,0.281965,-0.656325,9.769138336,0.533423245,1.048914552,-0.512476802,-0.034643255,0.100126043,-2.040527344,0.823730469,-0.399414063
505,4225847638,-0.351773,-0.604988,0.281979,-0.656308,9.771806717,0.53436029,1.061517596,-0.412171453,-0.013742036,-0.039074514,-2.041503906,0.825683594,-0.39453125
506,4225855971,-0.351778,-0.604996,0.281985,-0.656295,9.793021202,0.557578385,1.053599477,-0.311430663,0.055608504,-0.071374066,-2.040039063,0.824707031,-0.396972656
507,4225864304,-0.351788,-0.604993,0.281988,-0.656291,9.780218124,0.557828784,1.054257512,-0.329360664,0.270383865,-0.043915611,-2.038574219,0.828125,-0.397460938
508,4225872637,-0.351814,-0.60499,0.281996,-0.656275,9.787249565,0.566311657,1.094649792,-0.564652979,0.191107795,-0.209870219,-2.040039063,0.823242188,-0.397949219
509,4225880970,-0.35184,-0.604966,0.282033,-0.656268,9.779781342,0.528816819,1.063584805,-0.875084817,0.323008329,0.15987125,-2.038574219,0.827148438,-0.400878906
510,4225889303,-0.351879,-0.604961,0.282004,-0.656265,9.760248184,0.596483052,1.055609226,-0.294243544,0.557801247,-0.55986321,-2.041503906,0.826171875,-0.397460938
511,4225897636,-0.351928,-0.604945,0.282013,-0.656249,9.784317017,0.5918262,1.079199433,-0.832552314,0.399505228,-0.359815955,-2.040527344,0.822265625,-0.3984375
512,4225905969,-0.351965,-0.604906,0.282051,-0.65625,9.770533562,0.551097929,1.068134069,-1.028782845,0.573246598,0.163239509,-2.04296875,0.827636719,-0.397460938
513,4225914302,-0.351999,-0.604891,0.282053,-0.656243,9.787184715,0.508202732,1.05265522,-0.599898219,0.439745158,-0.234254941,-2.040039063,0.824707031,-0.401367188
514,4225922635,-0.352039,-0.604883,0.282042,-0.656235,9.774410248,0.558436751,1.075880527,-0.494879872,0.458136231,-0.43412286,-2.041503906,0.825195313,-0.396972656
515,4225930968,-0.352077,-0.604863,0.28205,-0.656229,9.768100739,0.567678213,1.063005447,-0.708233595,0.479460031,-0.213289723,-2.039550781,0.824707031,-0.3984375
516,4225939301,-0.352109,-0.604855,0.282054,-0.656217,9.757135391,0.544867814,1.056424856,-0.595505297,0.329872876,-0.251378089,-2.041015625,0.825195313,-0.397949219
517,4225947634,-0.352144,-0.604852,0.282037,-0.656209,9.774624825,0.551291049,1.079793215,-0.37123993,0.412209928,-0.467318922,-2.041015625,0.827148438,-0.399414063
518,4225955967,-0.352171,-0.604855,0.28202,-0.656199,9.768108368,0.568400681,1.053163171,-0.284919918,0.330526054,-0.41391319,-2.042480469,0.823730469,-0.395996094
519,4225964300,-0.352215,-0.604842,0.282012,-0.656191,9.758023262,0.558379531,1.080622911,-0.596773207,0.498837203,-0.427847356,-2.04296875,0.825683594,-0.398925781
520,4225972633,-0.352245,-0.60484,0.282004,-0.656179,9.761241913,0.589079559,1.10662353,-0.42646417,0.316873699,-0.359047532,-2.0390625,0.822753906,-0.396972656
521,4225980966,-0.352278,-0.604829,0.28201,-0.656169,9.78968811,0.573114038,1.062776685,-0.627587199,0.354603469,-0.223445803,-2.039550781,0.825195313,-0.396972656
522,4225989299,-0.352302,-0.604829,0.281997,-0.656163,9.775111198,0.562106192,1.064729333,-0.311328202,0.35985437,-0.337429106,-2.039550781,0.826660156,-0.396484375
523,4225997632,-0.352337,-0.604817,0.281992,-0.656156,9.7840662,0.570618033,1.065837979,-0.531584978,0.451143444,-0.314529985,-2.037597656,0.823242188,-0.396484375
524,4226005965,-0.352367,-0.604811,0.281999,-0.656144,9.764732361,0.570231795,1.088677049,-0.578689575,0.282550603,-0.224214196,-2.041015625,0.82421875,-0.399902344
525,4226014298,-0.35239,-0.604806,0.282007,-0.656132,9.791104317,0.575095713,1.0624547,-0.547056019,0.239672378,-0.145143062,-2.041015625,0.824707031,-0.3984375
526,4226022631,-0.352422,-0.604797,0.282013,-0.656121,9.790124893,0.535826921,1.060230017,-0.604560018,0.324199378,-0.235791817,-2.038574219,0.822265625,-0.400878906
527,4226030964,-0.352458,-0.604789,0.282014,-0.656108,9.785167694,0.558451056,1.067697763,-0.591522276,0.352426231,-0.32336688,-2.0390625,0.820800781,-0.397460938
528,4226039297,-0.352481,-0.604788,0.282017,-0.656096,9.75508976,0.583514988,1.087704062,-0.471161008,0.219027326,-0.214634463,-2.041503906,0.826171875,-0.397949219
529,4226047630,-0.352511,-0.604779,0.282022,-0.656085,9.798372269,0.570911109,1.088920236,-0.55489397,0.330372363,-0.213584289,-2.038085938,0.824707031,-0.396484375
530,4226055963,-0.352543,-0.604761,0.282033,-0.65608,9.767192841,0.552850366,1.065709233,-0.670375764,0.426259339,-0.132784203,-2.040527344,0.82421875,-0.401855469
531,4226064296,-0.352578,-0.604763,0.282023,-0.656064,9.796283722,0.58370775,1.096280456,-0.40754807,0.295344949,-0.451527685,-2.041992188,0.825195313,-0.400878906
532,4226072629,-0.352601,-0.604747,0.282034,-0.656061,9.771577835,0.587133944,1.070279837,-0.58483696,0.394459188,-0.044094905,-2.042480469,0.825195313,-0.395996094
533,4226080962,-0.352629,-0.604729,0.282057,-0.656053,9.770940781,0.561591148,1.065880895,-0.76618576,0.338005453,-0.011385527,-2.042480469,0.823242188,-0.397949219
534,4226089295,-0.352651,-0.604721,0.282063,-0.656046,9.762858391,0.561985075,1.080801725,-0.495648205,0.313364565,-0.129979447,-2.0390625,0.823242188,-0.398925781
535,4226097628,-0.352687,-0.604704,0.282077,-0.656037,9.764424324,0.559330344,1.071095347,-0.756836593,0.391795307,-0.149190098,-2.040039063,0.821289063,-0.397460938
536,4226105961,-0.352709,-0.604693,0.282082,-0.656033,9.749876022,0.568364918,1.091995955,-0.488911659,0.373942226,-0.117044248,-2.04296875,0.826171875,-0.400390625
537,4226114294,-0.352729,-0.604696,0.282082,-0.656019,9.769675255,0.589451492,1.09105885,-0.406485051,0.180016831,-0.231744766,-2.040039063,0.820800781,-0.399902344
538,4226122627,-0.352742,-0.60469,0.282104,-0.656008,9.792485237,0.560553968,1.084149241,-0.575257301,0.156041935,0.057427116,-2.041992188,0.824707031,-0.399414063
539,4226130960,-0.352767,-0.604688,0.282105,-0.655996,9.759846687,0.563135803,1.080072403,-0.470110893,0.241311729,-0.241580665,-2.041015625,0.825683594,-0.398925781
540,4226139293,-0.35279,-0.604693,0.282102,-0.655981,9.769610405,0.599973559,1.134361863,-0.399850994,0.185472667,-0.29298842,-2.041015625,0.8203125,-0.396972656
541,4226147626,-0.352806,-0.604691,0.282133,-0.65596,9.760447502,0.56660521,1.064950943,-0.692314327,-0.002727916,0.040470492,-2.038574219,0.823730469,-0.399414063
542,4226155959,-0.352823,-0.604695,0.28214,-0.655945,9.758023262,0.577649117,1.084950447,-0.452744424,0.114879847,-0.155696139,-2.039550781,0.822753906,-0.397949219
543,4226164292,-0.352839,-0.60471,0.28214,-0.655922,9.768480301,0.591654539,1.087053299,-0.344344944,-0.021042094,-0.282793969,-2.039550781,0.823242188,-0.399902344
544,4226172625,-0.352853,-0.604711,0.282156,-0.655907,9.769187927,0.579437494,1.077389836,-0.506662369,0.093927398,-0.05682518,-2.041992188,0.823242188,-0.396972656
545,4226180958,-0.352872,-0.604698,0.28219,-0.655894,9.765339851,0.578235805,1.0614748,-0.787932217,0.155324727,0.12842977,-2.040527344,0.824707031,-0.399902344
546,4226189291,-0.352899,-0.604687,0.282217,-0.655877,9.791934013,0.56666255,1.081910372,-0.77475369,0.177391365,-0.042570855,-2.042480469,0.822753906,-0.399902344
547,4226197624,-0.352935,-0.604677,0.28223,-0.655862,9.793343544,0.577720463,1.10085845,-0.723960757,0.284356445,-0.215646237,-2.041503906,0.82421875,-0.398925781
548,4226205957,-0.352965,-0.604673,0.282242,-0.655845,9.7734375,0.585824966,1.080866098,-0.644723058,0.196896613,-0.206950188,-2.041503906,0.822753906,-0.3984375
549,4226214290,-0.353004,-0.604653,0.282271,-0.655829,9.790067673,0.595838726,1.088798404,-0.930398643,0.300378114,-0.090046845,-2.0390625,0.821777344,-0.397949219
550,4226222623,-0.353035,-0.604629,0.282298,-0.655824,9.783708572,0.58628279,1.06651032,-0.842669904,0.413695514,0.035168346,-2.040527344,0.821777344,-0.397460938
551,4226230956,-0.353068,-0.604608,0.282325,-0.655813,9.762686729,0.568500817,1.072819114,-0.863916993,0.330346793,-0.022028243,-2.0390625,0.823730469,-0.398925781
552,4226239289,-0.353095,-0.6046,0.282334,-0.655802,9.763637543,0.591747522,1.089943051,-0.582800686,0.293603122,-0.16221492,-2.0390625,0.820800781,-0.400390625
553,4226247622,-0.353122,-0.604585,0.282346,-0.655796,9.759903908,0.598907888,1.107024074,-0.628253162,0.368204653,-0.091788605,-2.040039063,0.823730469,-0.3984375
554,4226255955,-0.353154,-0.604551,0.282394,-0.655789,9.787664413,0.556240857,1.085386753,-1.080165148,0.384623319,0.236649916,-2.040039063,0.821289063,-0.399902344
555,4226264288,-0.353195,-0.604529,0.28241,-0.655781,9.759503365,0.498031259,1.05817008,-0.822690845,0.459647447,-0.172294155,-2.041992188,0.822753906,-0.3984375
556,4226272621,-0.353231,-0.604528,0.282376,-0.655777,9.786148071,0.568972886,1.086946011,-0.218835205,0.517817378,-0.592931151,-2.041503906,0.823242188,-0.395996094
557,4226280954,-0.353267,-0.604526,0.282375,-0.655761,9.78161335,0.629006684,1.126694322,-0.553177834,0.284036249,-0.37364763,-2.037597656,0.824707031,-0.400878906
558,4226289287,-0.353302,-0.604503,0.282397,-0.655752,9.769195557,0.595946252,1.06043756,-0.834703922,0.401298285,-0.064688757,-2.041015625,0.825195313,-0.397949219
559,4226297620,-0.353343,-0.604482,0.282411,-0.655745,9.76265049,0.545182526,1.060487628,-0.78129822,0.468228191,-0.172627121,-2.036132813,0.826171875,-0.400878906
560,4226305953,-0.353381,-0.604474,0.28239,-0.65574,9.759288788,0.585710526,1.102174401,-0.372238845,0.522940218,-0.492625743,-2.041503906,0.824707031,-0.3984375
561,4226314286,-0.353415,-0.604462,0.282396,-0.65573,9.780661583,0.594559014,1.081831574,-0.626204014,0.379269987,-0.231206894,-2.041992188,0.82421875,-0.396484375
562,4226322619,-0.353454,-0.604441,0.282406,-0.655724,9.790374756,0.570210874,1.054407597,-0.741416812,0.481112123,-0.198804885,-2.0390625,0.824707031,-0.400390625
563,4226330952,-0.353499,-0.604438,0.282391,-0.655709,9.772893906,0.557692885,1.063313007,-0.500322759,0.393473059,-0.558928192,-2.038574219,0.822753906,-0.399414063
564,4226339285,-0.353535,-0.604432,0.282395,-0.655694,9.755197525,0.568987191,1.05231905,-0.621939182,0.300339699,-0.31695053,-2.041992188,0.823242188,-0.400390625
565,4226347618,-0.353572,-0.604436,0.28237,-0.655681,9.785676956,0.580947042,1.073047757,-0.330884695,0.365758479,-0.590459287,-2.038085938,0.822265625,-0.402832031
566,4226355951,-0.353604,-0.604434,0.282359,-0.655671,9.792778015,0.590345383,1.061267495,-0.411736041,0.354244858,-0.398621529,-2.042480469,0.823730469,-0.397460938
567,4226364284,-0.353637,-0.604432,0.282358,-0.655654,9.780568123,0.57973814,1.070057869,-0.534248888,0.247971416,-0.3509022,-2.041992188,0.822265625,-0.397949219
568,4226372617,-0.353678,-0.604425,0.28234,-0.655647,9.782972336,0.588471532,1.077182412,-0.436940402,0.500783861,-0.499541581,-2.040527344,0.822753906,-0.397460938
569,4226380950,-0.353708,-0.604417,0.282353,-0.655632,9.78225708,0.569573402,1.082418203,-0.681197703,0.244282946,-0.187970057,-2.0390625,0.823730469,-0.397460938
570,4226389283,-0.353748,-0.604415,0.282349,-0.655614,9.774846077,0.548830509,1.095436454,-0.576627672,0.282358527,-0.451783895,-2.041503906,0.822265625,-0.399902344
571,4226397616,-0.353784,-0.604432,0.282305,-0.655598,9.748310089,0.597799063,1.086552501,-0.077175692,0.318910033,-0.799036026,-2.039550781,0.82421875,-0.40234375
572,4226405949,-0.353817,-0.604424,0.282318,-0.655582,9.783558846,0.594794631,1.06917119,-0.686653614,0.245461211,-0.223087177,-2.040527344,0.82421875,-0.398925781
573,4226414282,-0.35386,-0.604407,0.282317,-0.655575,9.734110832,0.536005437,1.045087576,-0.655634701,0.506316543,-0.328540921,-2.041015625,0.823242188,-0.399902344
574,4226422615,-0.353893,-0.604428,0.282273,-0.655557,9.770404816,0.56436646,1.069614649,-0.041533485,0.239697993,-0.807680845,-2.041992188,0.818847656,-0.397460938
575,4226430948,-0.353927,-0.60443,0.282258,-0.655544,9.792205811,0.61122489,1.073155046,-0.395752758,0.335802585,-0.482380092,-2.0390625,0.822753906,-0.401367188
576,4226439281,-0.353969,-0.604427,0.282235,-0.655534,9.774150848,0.603792548,1.105150223,-0.389887065,0.459544957,-0.578587174,-2.042480469,0.822753906,-0.40234375
577,4226447614,-0.354014,-0.604424,0.282225,-0.655516,9.778316498,0.578107357,1.064235449,-0.5600425,0.342462331,-0.534428239,-2.041992188,0.82421875,-0.399414063
578,4226455947,-0.354057,-0.60442,0.282205,-0.655505,9.782649994,0.574645102,1.065287232,-0.439527512,0.458546102,-0.566907108,-2.04296875,0.825195313,-0.398925781
579,4226464280,-0.354094,-0.604423,0.282171,-0.655496,9.772808075,0.622297347,1.070301294,-0.22529,0.446456105,-0.650947332,-2.040527344,0.819824219,-0.398925781
580,4226472613,-0.354125,-0.604422,0.282168,-0.655482,9.795060158,0.607562482,1.079084992,-0.490243614,0.26677224,-0.340297878,-2.040039063,0.822753906,-0.400878906
581,4226480946,-0.354165,-0.604419,0.282155,-0.655469,9.798286438,0.559459627,1.038700104,-0.476514459,0.387620211,-0.488783598,-2.041015625,0.823730469,-0.400390625
582,4226489279,-0.35419,-0.604427,0.282133,-0.655458,9.796210289,0.596739888,1.064407587,-0.212892696,0.284881502,-0.470341355,-2.041015625,0.823242188,-0.399902344
583,4226497612,-0.354215,-0.604426,0.282136,-0.655444,9.765447617,0.597691178,1.063692212,-0.474081039,0.227044567,-0.234844103,-2.042480469,0.822753906,-0.400390625
584,4226505945,-0.35423,-0.60443,0.282128,-0.655435,9.759990692,0.574624062,1.079928756,-0.260932207,0.225674227,-0.247459114,-2.041992188,0.822753906,-0.397460938
585,4226514278,-0.354254,-0.604444,0.2821,-0.655421,9.755604744,0.582563281,1.054493546,-0.136370182,0.230284765,-0.53828305,-2.040527344,0.824707031,-0.3984375
586,4226522611,-0.354273,-0.604452,0.282087,-0.65541,9.75969696,0.611846864,1.085744619,-0.252441049,0.220436066,-0.344344944,-2.039550781,0.822753906,-0.397949219
587,4226530944,-0.354286,-0.604465,0.282079,-0.655394,9.755111694,0.603506804,1.09360528,-0.266247153,0.079839572,-0.281999916,-2.041015625,0.822265625,-0.397949219
588,4226539277,-0.354298,-0.604481,0.282073,-0.655375,9.766326904,0.576275945,1.074972153,-0.238148347,0.019466817,-0.292143136,-2.041503906,0.825195313,-0.399414063
589,4226547610,-0.35432,-0.604498,0.282063,-0.655352,9.757743835,0.561026096,1.068563223,-0.292488933,0.032402009,-0.434366167,-2.041992188,0.8203125,-0.397949219
590,4226555943,-0.354333,-0.60452,0.282056,-0.655328,9.750556946,0.585338533,1.0996418,-0.232602865,-0.075792514,-0.356678218,-2.038085938,0.824707031,-0.399902344
591,4226564276,-0.354349,-0.604548,0.282053,-0.655294,9.730412483,0.60819906,1.067282796,-0.296318293,-0.208026022,-0.402873516,-2.040039063,0.821777344,-0.396972656
592,4226572609,-0.35436,-0.604577,0.282062,-0.655258,9.757464409,0.599343836,1.098598003,-0.373622,-0.317603707,-0.304412365,-2.04296875,0.820800781,-0.3984375
593,4226580942,-0.354381,-0.604609,0.282061,-0.655218,9.760418892,0.609994352,1.083419442,-0.346432507,-0.283498347,-0.481598824,-2.041992188,0.819824219,-0.400878906
594,4226589275,-0.354396,-0.604647,0.28206,-0.655175,9.753538132,0.601696968,1.083648324,-0.298559487,-0.399325907,-0.476732045,-2.041503906,0.821777344,-0.396972656
595,4226597608,-0.354408,-0.604687,0.28207,-0.655127,9.779910088,0.619078577,1.075694561,-0.38122943,-0.513091564,-0.383970201,-2.040527344,0.822265625,-0.395996094
596,4226605941,-0.354435,-0.604715,0.282074,-0.655085,9.780146599,0.61175406,1.055731058,-0.469444871,-0.28046307,-0.505970836,-2.043457031,0.822753906,-0.3984375
597,4226614274,-0.354456,-0.604747,0.282081,-0.65504,9.76894474,0.600938797,1.086530924,-0.403385788,-0.359687865,-0.434148461,-2.044921875,0.821289063,-0.399414063
598,4226622607,-0.354478,-0.604777,0.282075,-0.655004,9.767871857,0.619085729,1.066732049,-0.311097682,-0.211868137,-0.518291235,-2.040039063,0.819335938,-0.3984375
599,4226630940,-0.354502,-0.604804,0.282084,-0.654962,9.787020683,0.617826939,1.061875582,-0.490064323,-0.29309085,-0.414784133,-2.041992188,0.823242188,-0.3984375
600,4226639273,-0.354528,-0.604822,0.282092,-0.654928,9.777463913,0.600152135,1.049643993,-0.522197425,-0.147230625,-0.389285177,-2.042480469,0.822753906,-0.400390625
601,4226647606,-0.354563,-0.604836,0.282091,-0.654897,9.794610023,0.602312267,1.059057117,-0.532814443,0.004226348,-0.490960836,-2.042480469,0.821777344,-0.397949219
602,4226655939,-0.354603,-0.604841,0.282098,-0.654867,9.791433334,0.605266392,1.052397728,-0.683503091,0.082144849,-0.451233149,-2.041992188,0.822753906,-0.401855469
603,4226664272,-0.354655,-0.604838,0.282107,-0.654838,9.790040016,0.570489168,1.047899008,-0.8378672,0.177135229,-0.500809491,-2.040527344,0.822753906,-0.3984375
604,4226672605,-0.35471,-0.604836,0.282095,-0.654815,9.773043633,0.565589607,1.052175999,-0.637230933,0.343807042,-0.671886981,-2.041503906,0.821289063,-0.398925781
605,4226680938,-0.354769,-0.604833,0.282074,-0.654796,9.766534805,0.573636532,1.041225076,-0.602741361,0.444150835,-0.75611937,-2.040527344,0.822265625,-0.397949219
606,4226689271,-0.354837,-0.604825,0.282051,-0.654776,9.781820297,0.599165022,1.047784209,-0.671797335,0.524784446,-0.847972095,-2.041503906,0.819824219,-0.397460938
607,4226697604,-0.354898,-0.604815,0.282022,-0.654764,9.784874916,0.582506061,1.061374545,-0.536374867,0.620069385,-0.779069722,-2.041503906,0.81640625,-0.3984375
608,4226705937,-0.354967,-0.604801,0.281984,-0.654756,9.802149773,0.59983778,1.028943419,-0.530509233,0.751496077,-0.896126807,-2.041992188,0.821289063,-0.397460938
609,4226714270,-0.35504,-0.604778,0.281941,-0.654757,9.784438133,0.619135797,1.026025295,-0.529292524,0.954501688,-0.897625208,-2.042480469,0.8203125,-0.398925781
610,4226722603,-0.355122,-0.604739,0.2819,-0.654766,9.804338455,0.621432185,1.086338043,-0.664753318,1.185580373,-0.866311669,-2.046386719,0.821777344,-0.396484375
611,4226730936,-0.355207,-0.604695,0.281868,-0.654774,9.787055969,0.623756528,1.060974002,-0.789033651,1.188987136,-0.784525573,-2.040527344,0.821289063,-0.399414063
612,4226739269,-0.355296,-0.604642,0.281825,-0.654792,9.769432068,0.636811197,1.079829216,-0.742287636,1.429427981,-0.845077574,-2.041992188,0.821777344,-0.396484375
613,4226747602,-0.355379,-0.604586,0.281797,-0.654812,9.743335724,0.650609612,1.061605215,-0.817491114,1.36879909,-0.639856398,-2.041992188,0.820800781,-0.3984375
614,4226755935,-0.355476,-0.604514,0.281785,-0.65483,9.746815681,0.644056559,1.079568863,-1.178472638,1.481040716,-0.587987602,-2.041015625,0.820800781,-0.398925781
615,4226764268,-0.355557,-0.604449,0.281779,-0.654849,9.740581512,0.607073307,1.086633682,-1.080779791,1.336499572,-0.40366751,-2.040527344,0.820800781,-0.399414063
616,4226772601,-0.355657,-0.604375,0.281763,-0.65487,9.708717346,0.584267914,1.136318564,-1.173298597,1.551710367,-0.619544327,-2.043457031,0.818847656,-0.399902344
617,4226780934,-0.355739,-0.604323,0.281739,-0.654884,9.737887383,0.649506748,1.085307956,-0.855502605,1.260092258,-0.638421953,-2.039550781,0.822265625,-0.400878906
618,4226789267,-0.355822,-0.604251,0.281732,-0.654908,9.812719345,0.652858198,1.030430913,-1.092715979,1.450687766,-0.395086735,-2.041503906,0.821289063,-0.399414063
619,4226797600,-0.35592,-0.604154,0.28175,-0.654937,9.746376038,0.563790798,1.09105885,-1.535355568,1.641616106,-0.185126871,-2.044921875,0.8203125,-0.402832031
620,4226805933,-0.356014,-0.604093,0.281723,-0.654953,9.780308723,0.570016801,1.056970358,-0.976171315,1.428633809,-0.727610707,-2.041992188,0.821289063,-0.401855469
621,4226814266,-0.356112,-0.604031,0.281681,-0.654976,9.783279419,0.636980176,1.124489784,-0.836663365,1.573239088,-0.85285151,-2.04296875,0.818359375,-0.399902344
622,4226822599,-0.356204,-0.603958,0.281663,-0.655,9.741339684,0.622707248,1.137310266,-1.063169956,1.551902413,-0.553318679,-2.040527344,0.816894531,-0.400390625
623,4226830932,-0.356289,-0.603896,0.281653,-0.655016,9.765403748,0.603424847,1.095020175,-1.097365022,1.307824373,-0.505240798,-2.041503906,0.821289063,-0.398925781
624,4226839265,-0.356389,-0.603834,0.281616,-0.655035,9.775447845,0.605856478,1.099128842,-0.934509695,1.531692743,-0.856796145,-2.042480469,0.816894531,-0.401367188
625,4226847598,-0.356476,-0.603777,0.281593,-0.655049,9.769634247,0.621198058,1.120565534,-0.966873288,1.323743582,-0.651895106,-2.041015625,0.819824219,-0.399414063
626,4226855931,-0.356554,-0.603727,0.281571,-0.655063,9.784789085,0.631474435,1.103848219,-0.840595126,1.219749689,-0.614242136,-2.041015625,0.817382813,-0.401855469
627,4226864264,-0.356627,-0.603682,0.281557,-0.65507,9.74516201,0.661130428,1.103025556,-0.875763476,1.068164706,-0.531277597,-2.040527344,0.8203125,-0.399414063
628,4226872597,-0.35669,-0.603643,0.281559,-0.655071,9.760489464,0.658840656,1.130335331,-0.92836231,0.83393538,-0.369613379,-2.041503906,0.818359375,-0.400390625
629,4226880930,-0.356746,-0.603594,0.281572,-0.65508,9.742823601,0.630680203,1.132187724,-0.978386939,0.908370376,-0.13590914,-2.041503906,0.81640625,-0.399902344
630,4226889263,-0.356792,-0.603561,0.281565,-0.655088,9.74260807,0.649585426,1.13519907,-0.648910999,0.820206285,-0.280911326,-2.041015625,0.818359375,-0.397949219
631,4226897596,-0.356841,-0.603523,0.281575,-0.655092,9.760669708,0.644120634,1.141965628,-0.75984621,0.764085412,-0.154197678,-2.042480469,0.8203125,-0.400878906
632,4226905929,-0.356884,-0.603475,0.281611,-0.655097,9.761857033,0.623513341,1.088913083,-1.095034003,0.707503557,0.150547653,-2.041992188,0.819824219,-0.400390625
633,4226914262,-0.356926,-0.603436,0.28163,-0.655102,9.756828308,0.582699597,1.115514517,-0.819527388,0.711755514,-0.012064304,-2.041992188,0.819824219,-0.40234375
634,4226922595,-0.356972,-0.603401,0.28163,-0.655109,9.788958549,0.584945202,1.125027776,-0.728942692,0.796141684,-0.222190678,-2.041503906,0.817382813,-0.401855469
635,4226930928,-0.357026,-0.603363,0.281637,-0.655112,9.783722878,0.583078325,1.100915551,-0.93206352,0.787970722,-0.240171894,-2.043945313,0.818359375,-0.404785156
636,4226939261,-0.357088,-0.603319,0.281623,-0.655125,9.748531342,0.624865234,1.078469872,-0.749818206,1.059737682,-0.427693665,-2.042480469,0.815917969,-0.400878906
637,4226947594,-0.357156,-0.603278,0.281619,-0.655128,9.754875183,0.639328241,1.129784346,-0.878248036,0.914505005,-0.434353381,-2.041503906,0.815917969,-0.399902344
638,4226955927,-0.357212,-0.603238,0.281616,-0.655136,9.74636364,0.643283784,1.13970542,-0.804722369,0.906065166,-0.305526614,-2.044921875,0.819824219,-0.401367188
639,4226964260,-0.357272,-0.603195,0.281608,-0.655146,9.787070274,0.610416472,1.089199185,-0.881846845,0.985981464,-0.384008586,-2.044433594,0.818847656,-0.402832031
640,4226972593,-0.35733,-0.603141,0.281621,-0.655158,9.790060043,0.56663394,1.047791362,-1.015143275,0.989746809,-0.114828609,-2.04296875,0.815429688,-0.400390625
641,4226980926,-0.35742,-0.603096,0.281582,-0.655168,9.788764954,0.582210541,1.083953381,-0.774625719,1.27297616,-0.889607966,-2.039550781,0.820800781,-0.403320313
642,4226989259,-0.357499,-0.603048,0.281552,-0.655181,9.777428627,0.629514575,1.110342979,-0.76377809,1.242495418,-0.681556404,-2.043457031,0.814941406,-0.400390625
643,4226997592,-0.357585,-0.602994,0.281534,-0.655192,9.76834774,0.655937076,1.126176596,-0.940951824,1.244928718,-0.629072785,-2.043457031,0.816894531,-0.399902344
644,4227005925,-0.357665,-0.602932,0.28154,-0.655202,9.752710342,0.645778358,1.131284595,-1.185426831,1.162233233,-0.368742585,-2.04296875,0.816894531,-0.401367188
645,4227014258,-0.357735,-0.602884,0.281516,-0.655219,9.729761124,0.61266923,1.149161458,-0.883601427,1.193879485,-0.546876729,-2.041015625,0.818359375,-0.399902344
646,4227022591,-0.357807,-0.602843,0.281493,-0.655227,9.772550583,0.631424129,1.12660861,-0.769592404,1.072775245,-0.61262846,-2.041992188,0.818359375,-0.399902344
647,4227030924,-0.357878,-0.602795,0.281483,-0.655237,9.751056671,0.649141729,1.154375911,-0.856194317,1.083379626,-0.465961337,-2.045410156,0.819335938,-0.405273438
648,4227039257,-0.357938,-0.602756,0.281474,-0.655244,9.768544197,0.626381636,1.142688155,-0.7849738,0.930834115,-0.400222421,-2.041503906,0.819335938,-0.403808594
649,4227047590,-0.357972,-0.602737,0.281442,-0.655256,9.735375404,0.658039868,1.137273431,-0.436735511,0.794169307,-0.431074709,-2.044921875,0.819824219,-0.402832031
650,4227055923,-0.35802,-0.602715,0.281434,-0.655253,9.767807961,0.656681061,1.135292053,-0.650665581,0.645017624,-0.412017733,-2.04296875,0.818847656,-0.404296875
651,4227064256,-0.358071,-0.602677,0.281444,-0.655256,9.75951767,0.618856847,1.095136046,-0.849431932,0.755005181,-0.176725402,-2.044921875,0.815917969,-0.401367188
652,4227072589,-0.358116,-0.602655,0.281425,-0.65526,9.753129959,0.656816959,1.153817892,-0.490128338,0.750663579,-0.432419509,-2.043945313,0.81640625,-0.401855469
653,4227080922,-0.358142,-0.60265,0.281393,-0.655265,9.755862236,0.682502806,1.142022848,-0.352874488,0.572785497,-0.459839553,-2.044433594,0.816894531,-0.401367188
654,4227089255,-0.358184,-0.602609,0.28142,-0.655268,9.752808571,0.619986951,1.138939977,-0.984752059,0.667993665,0.047207035,-2.041992188,0.816894531,-0.403808594
655,4227097588,-0.35823,-0.602581,0.281428,-0.655265,9.765562057,0.612247586,1.085608482,-0.684834957,0.62647289,-0.214275867,-2.044921875,0.818359375,-0.403320313
656,4227105921,-0.358273,-0.602562,0.281419,-0.655263,9.777864456,0.653898597,1.122374058,-0.572490931,0.600346446,-0.379666984,-2.043945313,0.819335938,-0.403808594
657,4227114254,-0.358335,-0.602527,0.281439,-0.655253,9.7507267,0.63050878,1.159640312,-0.896792829,0.634900093,-0.248957574,-2.040039063,0.81640625,-0.401367188
658,4227122587,-0.358374,-0.602503,0.281447,-0.65525,9.745948792,0.62373507,1.131386638,-0.730005622,0.542752802,-0.189468488,-2.043457031,0.817871094,-0.403808594
659,4227130920,-0.358425,-0.602488,0.281434,-0.655241,9.76145649,0.607533872,1.140749693,-0.567624211,0.573784471,-0.522594452,-2.042480469,0.815917969,-0.399902344
660,4227139253,-0.358464,-0.602472,0.281427,-0.655237,9.754567146,0.6406582,1.120271325,-0.549361348,0.541945994,-0.339708835,-2.041992188,0.817382813,-0.403320313
661,4227147586,-0.3585,-0.602463,0.281428,-0.655225,9.748373985,0.620130002,1.090572476,-0.613191962,0.355423123,-0.308946073,-2.042480469,0.815429688,-0.403808594
662,4227155919,-0.358536,-0.602456,0.281423,-0.655214,9.764624596,0.638913393,1.124047756,-0.529420674,0.378450364,-0.37478748,-2.042480469,0.81640625,-0.404296875
663,4227164252,-0.358559,-0.602451,0.281416,-0.65521,9.753845215,0.64201057,1.133947372,-0.281346768,0.390168875,-0.230502501,-2.04296875,0.816894531,-0.40234375
664,4227172585,-0.358579,-0.602448,0.281414,-0.655202,9.769095421,0.643906057,1.139054418,-0.389054596,0.292706668,-0.202019468,-2.043945313,0.817871094,-0.404296875
665,4227180918,-0.358599,-0.602445,0.281412,-0.655194,9.747951508,0.657253265,1.132831454,-0.415847093,0.290888011,-0.195897639,-2.042480469,0.818359375,-0.403808594
666,4227189251,-0.358622,-0.60243,0.281414,-0.655195,9.763910294,0.651115894,1.153124213,-0.474337161,0.455958992,-0.105159238,-2.0390625,0.814941406,-0.405761719
667,4227197584,-0.35864,-0.60242,0.281428,-0.655189,9.76200676,0.659814,1.127295256,-0.451028228,0.296407908,0.002458967,-2.042480469,0.815917969,-0.404296875
668,4227205917,-0.358659,-0.602402,0.281435,-0.655191,9.7458992,0.636918068,1.129526973,-0.505125523,0.465769231,-0.013537123,-2.043457031,0.819335938,-0.405273438
669,4227214250,-0.358679,-0.602392,0.281443,-0.655186,9.782643318,0.625172377,1.129727244,-0.430921108,0.338133574,-0.062409088,-2.041503906,0.81640625,-0.402832031
670,4227222583,-0.358706,-0.602379,0.281439,-0.655185,9.755962372,0.62211138,1.13335371,-0.451899141,0.471327513,-0.211893752,-2.043457031,0.819824219,-0.401855469
671,4227230916,-0.358732,-0.602367,0.281439,-0.655182,9.738602638,0.650894761,1.120135188,-0.564268827,0.431369364,-0.181873888,-2.045898438,0.81640625,-0.404785156
672,4227239249,-0.35875,-0.60235,0.281443,-0.655186,9.751198769,0.637296855,1.136057377,-0.458558857,0.476604044,-0.016380303,-2.043945313,0.817871094,-0.402832031
673,4227247582,-0.358773,-0.602331,0.281455,-0.655186,9.764325142,0.639671266,1.140070081,-0.614139676,0.451066673,-0.010822013,-2.041992188,0.818359375,-0.404785156
674,4227255915,-0.358803,-0.602309,0.28146,-0.655188,9.755204201,0.651001692,1.13396883,-0.591138124,0.538590491,-0.105466604,-2.045898438,0.816894531,-0.405761719
675,4227264248,-0.358828,-0.602283,0.28147,-0.655193,9.766884804,0.660579801,1.175147772,-0.59257251,0.566125751,0.004508105,-2.044433594,0.817871094,-0.404296875
676,4227272581,-0.358847,-0.602257,0.281482,-0.655201,9.751120567,0.640122235,1.121644497,-0.558236539,0.558351815,0.091609307,-2.043457031,0.81640625,-0.402832031
677,4227280914,-0.358864,-0.602244,0.2815,-0.655196,9.772722244,0.634978831,1.13079989,-0.526270032,0.308382571,0.058387645,-2.044433594,0.814453125,-0.40234375
678,4227289247,-0.358879,-0.602229,0.28151,-0.655198,9.760890961,0.642218649,1.129319549,-0.478768468,0.403705925,0.04152067,-2.044433594,0.817871094,-0.404785156
679,4227297580,-0.358889,-0.602213,0.281525,-0.6552,9.74759388,0.670800745,1.12817502,-0.635732412,0.362825632,0.114470012,-2.042480469,0.814941406,-0.400878906
680,4227305913,-0.358909,-0.602185,0.281561,-0.6552,9.748553276,0.649399281,1.140255928,-0.82156378,0.389464438,0.247279793,-2.041992188,0.818359375,-0.403320313
681,4227314246,-0.358912,-0.60217,0.281573,-0.655207,9.735655785,0.640801728,1.141386271,-0.540306628,0.390527427,0.178262249,-2.041503906,0.816894531,-0.403808594
682,4227322579,-0.358921,-0.602156,0.281595,-0.655206,9.75573349,0.636366487,1.150806189,-0.555585444,0.285931706,0.165032506,-2.043945313,0.817871094,-0.403320313
683,4227330912,-0.358932,-0.602142,0.28162,-0.655201,9.778608322,0.643448293,1.162873387,-0.523286045,0.25660342,0.176328406,-2.044921875,0.815429688,-0.405273438
684,4227339245,-0.358937,-0.602126,0.281644,-0.655203,9.776262283,0.635551572,1.148710847,-0.527473927,0.303490281,0.250212669,-2.040527344,0.817871094,-0.40625
685,4227347578,-0.358948,-0.60211,0.281659,-0.655205,9.762135506,0.628198445,1.117281199,-0.553510785,0.367154419,0.120053917,-2.044921875,0.813476563,-0.404296875
686,4227355911,-0.35896,-0.6021,0.281673,-0.655202,9.752414703,0.641288161,1.132480979,-0.477334082,0.287852764,0.053303219,-2.044921875,0.819335938,-0.403808594
687,4227364244,-0.358956,-0.602093,0.28167,-0.655212,9.778179169,0.66287595,1.116415977,-0.49447,0.36472109,0.076509722,-2.041992188,0.815429688,-0.404296875
688,4227372577,-0.358978,-0.602071,0.281692,-0.655211,9.773165703,0.647210717,1.120743155,-0.685436904,0.412504464,0.08103063,-2.042480469,0.815917969,-0.405761719
689,4227380910,-0.359008,-0.602038,0.281721,-0.655212,9.747143745,0.645357847,1.110714674,-0.777059078,0.53468442,0.146731153,-2.041015625,0.818847656,-0.40234375
690,4227389243,-0.35903,-0.60201,0.281727,-0.655223,9.75459671,0.601310909,1.153910875,-0.52200526,0.634567082,0.043364901,-2.044921875,0.815917969,-0.401855469
691,4227397576,-0.359055,-0.601986,0.281737,-0.655227,9.74322319,0.628169835,1.148639321,-0.572145164,0.5573017,-0.004892319,-2.041992188,0.819824219,-0.407714844
692,4227405909,-0.359078,-0.601959,0.281751,-0.655233,9.74467659,0.665857732,1.158202529,-0.62277168,0.553907812,0.068313166,-2.043457031,0.817382813,-0.402832031
693,4227414242,-0.359106,-0.601924,0.281772,-0.655242,9.761077881,0.653083742,1.144083142,-0.62274611,0.63920325,0.143055514,-2.044433594,0.817871094,-0.407226563
694,4227422575,-0.359116,-0.601898,0.281798,-0.655248,9.751535416,0.644063413,1.163703203,-0.631608546,0.440718532,0.279528141,-2.041503906,0.817382813,-0.404296875
695,4227430908,-0.359128,-0.601873,0.281824,-0.655253,9.758609772,0.648097634,1.138832688,-0.61006701,0.426374525,0.264825553,-2.041015625,0.817382813,-0.40625
696,4227439241,-0.35914,-0.601845,0.281853,-0.655261,9.736099243,0.661781013,1.146772385,-0.663280606,0.471519619,0.302030236,-2.043945313,0.817871094,-0.405273438
697,4227447574,-0.35915,-0.601826,0.281871,-0.655264,9.754339218,0.693518221,1.183552265,-0.527525127,0.393626779,0.167786047,-2.045898438,0.818847656,-0.405273438
698,4227455907,-0.359163,-0.60178,0.281948,-0.655266,9.790360451,0.609465122,1.121050715,-1.216048717,0.346816748,0.739098728,-2.043457031,0.814941406,-0.401367188
699,4227464240,-0.359187,-0.601744,0.281994,-0.655267,9.757271767,0.530934095,1.081309557,-0.877761483,0.449914068,0.349378198,-2.042480469,0.813964844,-0.403808594
700,4227472573,-0.359218,-0.601732,0.281974,-0.655269,9.758143425,0.612676442,1.121379733,-0.320267588,0.583364189,-0.370573908,-2.044433594,0.816894531,-0.40625
701,4227480906,-0.359249,-0.601701,0.281999,-0.65527,9.776484489,0.678167582,1.15789485,-0.741852283,0.542893708,0.098128125,-2.041503906,0.818359375,-0.404785156
702,4227489239,-0.359267,-0.601659,0.282048,-0.655278,9.766277313,0.623656392,1.137566686,-0.968077183,0.512233436,0.460082889,-2.043945313,0.81640625,-0.404296875
703,4227497572,-0.359292,-0.601621,0.282079,-0.655285,9.76768589,0.613099098,1.145706773,-0.676049292,0.604393542,0.267848045,-2.041992188,0.817871094,-0.40625
704,4227505905,-0.359304,-0.601598,0.282095,-0.655293,9.750562668,0.649556816,1.146100044,-0.522543252,0.486747354,0.176610142,-2.040527344,0.818359375,-0.406738281
705,4227514238,-0.359323,-0.601569,0.282127,-0.655295,9.748409271,0.641280472,1.166893005,-0.709168494,0.4378497,0.258012176,-2.042480469,0.816894531,-0.404296875
706,4227522571,-0.359345,-0.601531,0.282166,-0.655302,9.746914864,0.613978982,1.114327431,-0.880988777,0.539896846,0.3221246,-2.04296875,0.816894531,-0.407226563
707,4227530904,-0.359372,-0.6015,0.282186,-0.655306,9.758237839,0.614285707,1.128754139,-0.599462748,0.570326507,0.103404664,-2.04296875,0.819824219,-0.403808594
708,4227539237,-0.359396,-0.601472,0.282205,-0.655311,9.743967056,0.661895454,1.153138399,-0.688472211,0.533774972,0.103763252,-2.045410156,0.817871094,-0.402832031
709,4227547570,-0.359409,-0.601441,0.282247,-0.655315,9.759553909,0.633849204,1.168323874,-0.824970543,0.403270513,0.3976354,-2.040527344,0.815429688,-0.404785156
710,4227555903,-0.359416,-0.601417,0.282278,-0.655319,9.741471291,0.626217067,1.124856114,-0.639702618,0.374505669,0.328400075,-2.04296875,0.818359375,-0.406738281
711,4227564236,-0.359432,-0.60139,0.282316,-0.655319,9.745362282,0.63174665,1.16073513,-0.55986315,0.367692292,0.336289287,-2.041992188,0.8203125,-0.405761719
712,4227572569,-0.359436,-0.60136,0.282348,-0.65533,9.752964973,0.626846135,1.145334244,-0.624231637,0.472377658,0.427578419,-2.042480469,0.818847656,-0.406738281
713,4227580902,-0.359447,-0.601332,0.282382,-0.655335,9.733753204,0.619908273,1.163996458,-0.726176322,0.403910846,0.330679774,-2.042480469,0.818359375,-0.403320313
714,4227589235,-0.35946,-0.601309,0.282418,-0.655334,9.742493629,0.615029693,1.152143836,-0.762932777,0.315311193,0.287391722,-2.042480469,0.818359375,-0.405273438
715,4227597568,-0.359461,-0.601288,0.282449,-0.655339,9.742650986,0.628255665,1.137051702,-0.565165281,0.329834521,0.381524026,-2.0390625,0.819335938,-0.407226563
716,4227605901,-0.359469,-0.601272,0.282484,-0.655335,9.751606941,0.630329728,1.167372227,-0.67305243,0.216593981,0.282448143,-2.043457031,0.818359375,-0.404296875
717,4227614234,-0.359473,-0.601261,0.28251,-0.65533,9.739003181,0.605810046,1.135456562,-0.609913349,0.176815063,0.224457517,-2.040527344,0.815429688,-0.409667969
718,4227622567,-0.359482,-0.60125,0.28253,-0.655327,9.753223419,0.615130603,1.136780262,-0.517881453,0.265107334,0.132707343,-2.043945313,0.817871094,-0.403320313
719,4227630900,-0.359512,-0.60123,0.282581,-0.655308,9.74768734,0.63324815,1.169704318,-0.595390022,0.161190376,0.221102074,-2.045410156,0.816894531,-0.404785156
720,4227639233,-0.359522,-0.601212,0.282608,-0.655307,9.767092705,0.637332618,1.14236629,-0.626216769,0.294909477,0.222165063,-2.041503906,0.817382813,-0.409179688
721,4227647566,-0.359538,-0.601191,0.282634,-0.655306,9.756563187,0.624915302,1.163738966,-0.660860002,0.359367698,0.175380662,-2.042480469,0.819824219,-0.404296875
722,4227655899,-0.359551,-0.601178,0.282654,-0.655302,9.726449966,0.632217765,1.172214746,-0.574591339,0.292719483,0.099588141,-2.04296875,0.81640625,-0.403320313
723,4227664232,-0.359551,-0.601166,0.282654,-0.655313,9.746278763,0.62756151,1.154611707,-0.628432453,0.403731585,0.076151118,-2.042480469,0.816894531,-0.403320313
724,4227672565,-0.359566,-0.601152,0.282679,-0.655307,9.758401871,0.619049966,1.153231382,-0.636295974,0.257166892,0.119516015,-2.044433594,0.819335938,-0.40625
725,4227680898,-0.359601,-0.601124,0.282721,-0.655296,9.784638405,0.623441815,1.146908283,-0.707119346,0.366590917,0.16362372,-2.04296875,0.816894531,-0.405761719
726,4227689231,-0.359615,-0.601106,0.282744,-0.655294,9.755555153,0.638097942,1.153059721,-0.628970325,0.322867423,0.141185656,-2.041015625,0.821289063,-0.405273438
727,4227697564,-0.359626,-0.601088,0.282781,-0.655289,9.764889717,0.647053301,1.187057257,-0.713497281,0.22258769,0.27665931,-2.043945313,0.819824219,-0.403320313
728,4227705897,-0.359642,-0.601063,0.282834,-0.65528,9.743680954,0.618284583,1.129076242,-0.973853052,0.190300941,0.374083102,-2.041992188,0.819335938,-0.405273438
729,4227714230,-0.359644,-0.601042,0.282864,-0.655285,9.741642952,0.607004583,1.134033203,-0.6716308,0.33340767,0.350825369,-2.040039063,0.817871094,-0.407714844
730,4227722563,-0.359651,-0.601025,0.2829,-0.655281,9.751134872,0.617884278,1.144855857,-0.676932931,0.21007514,0.31063664,-2.041992188,0.817382813,-0.405273438
731,4227730896,-0.359653,-0.601012,0.282934,-0.655278,9.767557144,0.634435713,1.147408962,-0.740174532,0.175675213,0.308536232,-2.041503906,0.821289063,-0.405273438
732,4227739229,-0.359659,-0.600987,0.282986,-0.655275,9.757243156,0.628198445,1.145377636,-0.833474398,0.220615387,0.48042056,-2.041503906,0.816894531,-0.406738281
