PacketCounter,SampleTimeFine,Quat_W,Quat_X,Quat_Y,Quat_Z,Acc_X,Acc_Y,Acc_Z,Gyr_X,Gyr_Y,Gyr_Z,Mag_X,Mag_Y,Mag_Z,
0,319538535,0.74895215,0.014313362,-0.003346088,-0.662461162,0,0,0,0,0,0,-0.915039063,0.113769531,-1.564453125, 
1,319546868,0.748960555,0.014228879,-0.003487194,-0.662452877,-0.100765944,0.207021698,9.618782997,0.41399011,-2.221369267,0.193912581,-0.9140625,0.108886719,-1.565917969, 
2,319555201,0.748941123,0.014133778,-0.003711588,-0.662475646,-0.119133182,0.211700797,9.609639168,1.067870259,-3.182286739,-0.363158613,-0.9140625,0.111328125,-1.564941406, 
3,319563534,0.748559296,0.013671636,-0.003755495,-0.662916422,-0.103784621,0.233827457,9.56385231,1.617167473,-2.692312002,-0.258447647,-0.913574219,0.114257813,-1.561035156, 
4,319571867,0.748561859,0.013739358,-0.003990984,-0.662910819,-0.095486365,0.278756112,9.457566261,2.843730927,-1.805598736,0.121142529,-0.9140625,0.110351563,-1.563476563, 
5,319580200,0.74868691,0.013544112,-0.0041247,-0.662772655,-0.148673654,0.299088001,9.294528008,3.34249115,-0.998929501,0.563064873,-0.913085938,0.11328125,-1.562011719, 
6,319588533,0.748714507,0.013644764,-0.004283566,-0.662738442,-0.116433784,0.295513302,9.25776577,2.480341911,-0.711717129,0.628816605,-0.915527344,0.111328125,-1.5625, 
7,319596866,0.748793364,0.013901119,-0.004558473,-0.662642181,-0.109848469,0.280830175,9.248548508,1.896823764,-0.591816902,0.673282981,-0.913574219,0.113769531,-1.561035156, 
8,319605199,0.748818398,0.013910479,-0.004654841,-0.662613034,-0.096684977,0.269039869,9.299811363,0.972047329,-0.899776816,0.546313167,-0.915527344,0.114746094,-1.5625, 
9,319613532,0.748961866,0.014108023,-0.00493629,-0.662444651,-0.111754559,0.265455455,9.356609344,0.322803378,-1.477813244,0.831066668,-0.916992188,0.110839844,-1.5625, 
10,319621865,0.749001086,0.014053854,-0.005004927,-0.662400961,-0.100619018,0.212517798,9.415308952,0.062281009,-1.189166427,0.822716415,-0.916503906,0.110351563,-1.564453125, 
11,319630198,0.749050081,0.014174212,-0.005146724,-0.662341774,-0.073209345,0.19632408,9.499554634,-0.004456877,-0.390770763,0.839775443,-0.9140625,0.11328125,-1.564941406, 
12,319638531,0.74909246,0.014175105,-0.00518996,-0.662293434,-0.021379847,0.185265779,9.497666359,0.397238344,-0.423736274,0.890286863,-0.912109375,0.11328125,-1.563476563, 
13,319646864,0.749230444,0.014127394,-0.005282644,-0.662137628,-0.044619434,0.173005819,9.484912872,1.108417511,-0.755389392,0.873688698,-0.910644531,0.112792969,-1.564453125, 
14,319655197,0.749253213,0.014111422,-0.00540702,-0.662111223,-0.071186222,0.16470854,9.463004112,0.96492666,-1.419720173,0.505893946,-0.912597656,0.11328125,-1.563476563, 
15,319663530,0.749350369,0.013832296,-0.005562323,-0.662006021,-0.087829776,0.173051059,9.46117115,1.174118042,-1.990635872,0.311405063,-0.915039063,0.110839844,-1.563964844, 
16,319671863,0.749356925,0.013813556,-0.005764839,-0.661997318,-0.149428308,0.202227041,9.464913368,1.649159789,-2.255128384,0.189916745,-0.916503906,0.11328125,-1.560058594, 
17,319680196,0.74937886,0.013556028,-0.005881417,-0.661976755,-0.208838388,0.228365093,9.391759872,1.883863091,-1.896298528,0.190659553,-0.912109375,0.113769531,-1.564453125, 
18,319688529,0.74940604,0.013584236,-0.006002328,-0.66194433,-0.180521727,0.2497399,9.356799126,1.388534784,-0.980410397,0.602869451,-0.912597656,0.111816406,-1.565917969, 
19,319696862,0.749535739,0.013490164,-0.005909004,-0.661800027,-0.224241629,0.253775716,9.369737625,1.14573741,-0.239928544,1.105138898,-0.913085938,0.112792969,-1.564453125, 
20,319705195,0.749579489,0.013520629,-0.005976173,-0.661749303,-0.192819476,0.238783494,9.356855392,0.922394216,-0.402322769,0.930411458,-0.911621094,0.111328125,-1.564453125, 
21,319713528,0.749668896,0.013475439,-0.005852855,-0.661650062,-0.157384008,0.221802503,9.387928009,0.503998518,-0.826391935,0.987697661,-0.913085938,0.111328125,-1.561523438, 
22,319721861,0.749719262,0.013437259,-0.005938798,-0.66159302,-0.163556904,0.220686659,9.384293556,0.384047031,-1.219544888,1.064104915,-0.914550781,0.114257813,-1.566894531, 
23,319730194,0.749775231,0.01337421,-0.005830914,-0.661531866,-0.139760122,0.223443449,9.446516991,0.127904668,-1.527427912,1.06031394,-0.915039063,0.111328125,-1.564941406, 
24,319738527,0.749826968,0.013342338,-0.005934892,-0.661472917,-0.157915428,0.19506219,9.472364426,0.611834407,-1.347616076,1.099990487,-0.912597656,0.110839844,-1.565429688, 
25,319746860,0.749848485,0.013309517,-0.005853457,-0.66144985,-0.126021743,0.176006392,9.54194355,0.52208209,-1.501070857,0.598899245,-0.91015625,0.112792969,-1.563476563, 
26,319755193,0.749864519,0.013265375,-0.006016046,-0.661431134,-0.078602925,0.182222351,9.563691139,1.022456169,-2.072729349,0.372827977,-0.912109375,0.115722656,-1.563964844, 
27,319763526,0.749894917,0.013258453,-0.006019611,-0.661396921,-0.079857357,0.200163692,9.523334503,1.694368839,-2.023165941,0.243373647,-0.911621094,0.11328125,-1.5625, 
28,319771859,0.749894381,0.013254134,-0.006236009,-0.661395669,-0.092845164,0.192171007,9.492301941,1.924666405,-2.269830942,0.048295639,-0.911132813,0.110351563,-1.56640625, 
29,319780192,0.749910831,0.013225082,-0.006335385,-0.661376476,-0.071802028,0.199955225,9.483008385,2.358085155,-2.718361855,-0.100817636,-0.913085938,0.11328125,-1.563964844, 
30,319788525,0.749900639,0.013257768,-0.006610221,-0.661384523,-0.111976489,0.234854475,9.400620461,2.838569403,-2.5388062,-0.128865212,-0.9140625,0.111328125,-1.563964844, 
31,319796858,0.749931335,0.013301725,-0.006689932,-0.661348224,-0.089937277,0.267054111,9.277591705,2.893166065,-1.536546707,0.115558609,-0.912109375,0.115234375,-1.562988281, 
32,319805191,0.749951184,0.013396213,-0.006849293,-0.661322296,-0.138353705,0.32842958,9.184043884,2.423247337,-0.779056907,0.467088372,-0.912597656,0.113769531,-1.565917969, 
33,319813524,0.750036418,0.013320483,-0.006892561,-0.66122663,-0.200911209,0.332497686,9.11296463,1.023147821,-2.145550966,0.557942092,-0.911621094,0.111328125,-1.564453125, 
34,319821857,0.750046313,0.013126941,-0.007076807,-0.661217332,-0.156458944,0.28245312,9.230291367,-0.321125597,-3.657712221,0.237969026,-0.912597656,0.114746094,-1.565429688, 
35,319830190,0.750076413,0.012888458,-0.007109557,-0.66118741,-0.118725374,0.229088649,9.388001442,-1.30327785,-3.710478067,0.199009791,-0.913085938,0.114746094,-1.564453125, 
36,319838523,0.750087798,0.012671513,-0.007254404,-0.661177099,-0.149595901,0.185143933,9.580924988,-0.922368705,-3.46496582,0.255745351,-0.912597656,0.113769531,-1.563476563, 
37,319846856,0.750151098,0.012548426,-0.007317873,-0.661107004,-0.086745135,0.151980355,9.683299065,0.051907249,-3.014155149,0.210997239,-0.9140625,0.113769531,-1.561523438, 
38,319855189,0.750169694,0.012488972,-0.007523283,-0.661084771,-0.091729403,0.15146628,9.701713562,1.253445387,-2.654659033,0.43911761,-0.916503906,0.112304688,-1.563964844, 
39,319863522,0.750213802,0.012562829,-0.007632388,-0.661032081,-0.074782938,0.168523103,9.657522202,2.694143534,-1.652194977,0.393319368,-0.913574219,0.110839844,-1.561523438, 
40,319871855,0.750226855,0.01273046,-0.007847409,-0.661011755,-0.072540894,0.207034603,9.514364243,3.685644865,-0.690047443,0.34606111,-0.914550781,0.111816406,-1.564453125, 
41,319880188,0.75026238,0.012952955,-0.007940033,-0.660965919,-0.086357921,0.236264735,9.354879379,4.247621536,-0.010553065,0.37864244,-0.917480469,0.111328125,-1.5625, 
42,319888521,0.750273824,0.013131021,-0.008109826,-0.660947442,-0.078060396,0.266260356,9.240921974,3.381475925,-0.130658209,0.304463595,-0.915039063,0.110839844,-1.562988281, 
43,319896854,0.750284314,0.013160085,-0.008176676,-0.660933793,-0.135513395,0.268372327,9.257880211,1.977047563,-1.40906477,-0.183500379,-0.913085938,0.111816406,-1.564453125, 
44,319905187,0.750257969,0.013035625,-0.008437841,-0.660962939,-0.111700676,0.281400144,9.252077103,1.091230392,-3.835142374,-0.478345782,-0.915527344,0.108886719,-1.564941406, 
45,319913520,0.75026989,0.012860002,-0.008645968,-0.660950124,-0.131711349,0.251887381,9.27278614,1.009239316,-4.710790634,-0.193618,-0.9140625,0.11328125,-1.563964844, 
46,319921853,0.750274003,0.012713794,-0.008852792,-0.660945475,-0.139628723,0.2302237,9.39771843,0.37375012,-3.462302208,0.13845776,-0.912109375,0.111328125,-1.564453125, 
47,319930186,0.750328481,0.012598556,-0.008912194,-0.660885036,-0.085394181,0.243901268,9.46667099,0.17493242,-2.642722845,0.403001606,-0.913085938,0.110351563,-1.564941406, 
48,319938519,0.75034529,0.012486187,-0.009123506,-0.660865247,-0.051758349,0.213316366,9.462968826,0.762548506,-3.197808981,0.405460507,-0.913574219,0.11328125,-1.561035156, 
49,319946852,0.750390112,0.012362796,-0.009310004,-0.660814106,-0.048520748,0.214862511,9.486790657,1.226678491,-4.033063889,0.401669621,-0.913574219,0.112792969,-1.5625, 
50,319955185,0.750386298,0.012299391,-0.009514321,-0.660816729,-0.101578206,0.166033939,9.515483856,1.203395367,-2.68747139,-0.021029288,-0.916015625,0.112304688,-1.562011719, 
51,319963518,0.750438035,0.012301616,-0.009568631,-0.660757184,-0.024590444,0.190371096,9.585702896,1.345323443,-1.437009692,0.289965957,-0.916503906,0.111328125,-1.563476563, 
52,319971851,0.750458241,0.012417871,-0.009759352,-0.660729289,-0.049321964,0.183924735,9.556779861,2.936095476,-0.906052351,0.486580819,-0.915527344,0.114257813,-1.562011719, 
53,319980184,0.75047332,0.012524002,-0.009879042,-0.660708427,-0.070029043,0.160489887,9.559136391,3.092829227,-1.126667619,-0.280527085,-0.91796875,0.110839844,-1.5625, 
54,319988517,0.750426352,0.012539669,-0.010143796,-0.660757482,-0.065519512,0.182777494,9.538720131,2.569658041,-2.606171131,-0.893552601,-0.915039063,0.110351563,-1.562011719, 
55,319996850,0.750392377,0.012466553,-0.010434843,-0.660792649,-0.108864866,0.22450839,9.524279594,2.876670837,-4.497603416,-1.312985778,-0.91796875,0.110351563,-1.565917969, 
56,320005183,0.750319004,0.01238473,-0.010861143,-0.66087079,-0.133096397,0.241592124,9.513577461,3.032405376,-5.16882515,-1.392185092,-0.917480469,0.110351563,-1.563964844, 
57,320013516,0.750304103,0.012368605,-0.011135113,-0.660883188,-0.115013242,0.294593096,9.448663712,3.328121662,-3.808810949,-1.148567796,-0.915527344,0.107421875,-1.560058594, 
58,320021849,0.750277877,0.012449575,-0.01143703,-0.660906255,-0.080291502,0.297162175,9.312573433,3.583342314,-2.389936447,-0.441435784,-0.916503906,0.112304688,-1.559570313, 
59,320030182,0.750310957,0.012533279,-0.011603477,-0.660864472,-0.057852503,0.301655859,9.255345345,3.316338778,-1.827037811,0.091481239,-0.916015625,0.110351563,-1.562011719, 
60,320038515,0.750320733,0.012542395,-0.011874473,-0.660848379,-0.062657103,0.299455553,9.259113312,2.561000824,-2.711548328,0.29552424,-0.920898438,0.109375,-1.563964844, 
61,320046848,0.750383377,0.012517396,-0.012073828,-0.660774052,-0.089819856,0.302929819,9.230259895,2.4042418,-3.15265131,0.247446343,-0.91796875,0.108398438,-1.561523438, 
62,320055181,0.750414968,0.012497974,-0.012288443,-0.660734594,-0.098222665,0.337357312,9.251942635,1.753819585,-2.382662058,0.731273651,-0.920410156,0.109375,-1.562011719, 
63,320063514,0.750515103,0.012466194,-0.012372824,-0.660620093,-0.119287297,0.326519936,9.272657394,1.215279937,-2.011741877,1.1333915,-0.918457031,0.109863281,-1.560546875, 
64,320071847,0.750569284,0.012397381,-0.012533212,-0.660556853,-0.106517538,0.273702234,9.324555397,0.752968848,-2.264784813,1.1787287,-0.917480469,0.106933594,-1.563476563, 
65,320080180,0.750677407,0.012309094,-0.012603533,-0.660434127,-0.087502435,0.23161079,9.396338463,0.411018819,-2.423798084,1.102705598,-0.917480469,0.107910156,-1.561035156, 
66,320088513,0.750715256,0.012151025,-0.012767029,-0.660390913,-0.059716236,0.170829803,9.484751701,-0.141826019,-3.113384962,0.83923769,-0.919433594,0.108886719,-1.562011719, 
67,320096846,0.750771642,0.011895576,-0.012961008,-0.660327792,-0.074020177,0.15942733,9.589747429,-0.187982857,-5.251430511,0.358817011,-0.920410156,0.109375,-1.561035156, 
68,320105179,0.750735343,0.011560146,-0.013349271,-0.66036731,-0.079083204,0.140045524,9.64350605,0.066174366,-7.07237196,-0.620402336,-0.919921875,0.108886719,-1.560058594, 
69,320113512,0.75073576,0.011147992,-0.013747355,-0.660365522,-0.04066487,0.141779125,9.633806229,0.128673121,-8.800104141,-0.785281241,-0.922851563,0.108398438,-1.561523438, 
70,320121845,0.750666857,0.010642936,-0.014374748,-0.660438895,-0.063408799,0.162465885,9.634407043,0.485812426,-11.09255219,-1.198464632,-0.919433594,0.109375,-1.5625, 
71,320130178,0.750567913,0.009984097,-0.01511689,-0.660544991,-0.040619448,0.146487951,9.61081028,0.793004155,-14.62854958,-2.600409269,-0.922851563,0.110839844,-1.558105469, 
72,320138511,0.75042522,0.009288791,-0.016069228,-0.660694718,0.08732754,0.126756549,9.551490784,1.466735482,-16.20018768,-2.572668791,-0.928222656,0.108886719,-1.556640625, 
73,320146844,0.750371039,0.008712855,-0.016771924,-0.660746753,-0.049681243,0.152943254,9.674581528,1.356722355,-13.47772598,-2.018069267,-0.924804688,0.111328125,-1.557617188, 
74,320155177,0.75025171,0.008239755,-0.017564306,-0.660867751,-0.050953686,0.169514492,9.629218102,2.308624268,-12.52398014,-2.1366117,-0.926757813,0.111328125,-1.555664063, 
75,320163510,0.750248075,0.00788703,-0.018206488,-0.660858691,0.005125274,0.237081707,9.610390663,3.178227186,-10.8007288,-1.180457592,-0.928222656,0.106933594,-1.554199219, 
76,320171843,0.750221908,0.007734139,-0.018903146,-0.660870612,0.02763813,0.248078644,9.501717567,4.761468887,-8.591014862,-0.256116718,-0.930175781,0.104980469,-1.553222656, 
77,320180176,0.750269592,0.00759498,-0.019523963,-0.660800099,0.001869184,0.305786133,9.366342545,5.213253021,-8.653488159,0.169374153,-0.930175781,0.105957031,-1.551757813, 
78,320188509,0.750247419,0.007254736,-0.020320063,-0.660805047,-0.058892861,0.415811181,9.233217239,3.730829,-11.31913757,-0.088369124,-0.930664063,0.106933594,-1.554199219, 
79,320196842,0.750266016,0.006619868,-0.021176219,-0.660763741,0.006289781,0.491887182,9.074192047,2.189748526,-15.62783813,-0.332959533,-0.937011719,0.103515625,-1.552246094, 
80,320205175,0.750270188,0.005960953,-0.022053514,-0.660736442,-0.019361055,0.515959442,9.161660194,1.187130332,-15.04170609,0.58025223,-0.9375,0.104492188,-1.55078125, 
81,320213508,0.75037992,0.005552868,-0.02251813,-0.660599828,-0.018025219,0.41940096,9.406086922,0.841338038,-9.547732353,1.53617537,-0.936035156,0.100585938,-1.55078125, 
82,320221841,0.750525594,0.005555676,-0.022816189,-0.660424054,0.15672037,0.417478323,9.472099304,2.787968397,-2.999861956,3.146977663,-0.938476563,0.106445313,-1.551269531, 
83,320230174,0.750766635,0.005815005,-0.022925265,-0.660143912,0.15717572,0.430896342,9.435077667,4.401588917,0.171269596,4.172853947,-0.938476563,0.101074219,-1.552246094, 
84,320238507,0.750935733,0.005988433,-0.023159441,-0.659941792,0.162046924,0.419203609,9.407479286,3.975367785,-0.781925857,3.5718925,-0.938476563,0.102050781,-1.553710938, 
85,320246840,0.751136422,0.00600812,-0.023477582,-0.659702182,0.192324281,0.40114522,9.428473473,3.723886728,-4.152733326,3.436572075,-0.937988281,0.104980469,-1.551269531, 
86,320255173,0.751265109,0.005954063,-0.023981832,-0.659538031,0.057581801,0.423938304,9.459826469,4.068296432,-5.652934074,2.908432722,-0.939453125,0.102050781,-1.551269531, 
87,320263506,0.751456618,0.005832762,-0.024458326,-0.659303427,-0.001555971,0.412071943,9.41354847,3.625938416,-7.048345566,2.98770833,-0.940429688,0.102539063,-1.548828125, 
88,320271839,0.751595914,0.005644911,-0.025008647,-0.659125626,-0.049288467,0.424655944,9.434226036,3.107019901,-7.340118408,3.193288565,-0.941894531,0.099121094,-1.551757813, 
89,320280172,0.751830995,0.00553081,-0.025466247,-0.658840835,-0.064551547,0.41580373,9.4851017,3.488082647,-6.813386917,4.052313328,-0.940429688,0.102539063,-1.548828125, 
90,320288505,0.752051473,0.005433607,-0.02602382,-0.658568144,-0.058164772,0.384953409,9.423575401,4.135482788,-6.558269024,4.876528263,-0.942382813,0.102050781,-1.545898438, 
91,320296838,0.752363861,0.005416948,-0.026573464,-0.658189356,-0.009129819,0.380781472,9.373929024,5.305925369,-6.947784901,5.698284149,-0.944824219,0.103027344,-1.549316406, 
92,320305171,0.752643526,0.00531191,-0.027074199,-0.657850027,0.010582197,0.35829398,9.333499908,3.558342695,-6.016553879,6.100274086,-0.940917969,0.100585938,-1.548339844, 
93,320313504,0.753004611,0.005129997,-0.027519833,-0.657419622,0.015499233,0.370329171,9.278341293,2.644708395,-7.428974628,6.700723648,-0.944335938,0.1015625,-1.549316406, 
94,320321837,0.753322363,0.004934795,-0.028020022,-0.657035947,0.13171646,0.301835507,9.221132278,2.63587141,-6.812798023,6.937551975,-0.942871094,0.104003906,-1.550292969, 
95,320330170,0.753728032,0.004796697,-0.028241321,-0.65656203,0.090257816,0.259039283,9.296312332,1.077962399,-4.740888119,7.641713142,-0.94140625,0.103515625,-1.548828125, 
96,320338503,0.754066944,0.004558023,-0.028462285,-0.656164885,0.058913112,0.232105777,9.21645546,-0.335264683,-4.303242207,7.26451683,-0.946289063,0.10546875,-1.549316406, 
97,320346836,0.754415989,0.004198178,-0.02866352,-0.655757129,0.15155144,0.270360023,9.223534584,-1.397359133,-6.577403545,6.430826187,-0.939453125,0.103515625,-1.549804688, 
98,320355169,0.75469774,0.003654441,-0.028993424,-0.655421555,0.208862036,0.240342498,9.18657589,-2.538780928,-8.212591171,6.236029625,-0.946289063,0.104980469,-1.549316406, 
99,320363502,0.755015314,0.003056752,-0.029167712,-0.655051112,0.177518919,0.246784657,9.238186836,-4.078170776,-8.467555046,5.976633549,-0.947265625,0.107421875,-1.548339844, 
100,320371835,0.755269051,0.002312856,-0.029407909,-0.654750824,0.151978984,0.261895329,9.278381348,-5.437749386,-9.099099159,5.691215038,-0.946777344,0.10546875,-1.547363281, 
101,320380168,0.755555689,0.00159281,-0.029536111,-0.654416382,0.24732092,0.243969202,9.286413193,-5.738870621,-9.086984634,5.43281889,-0.945800781,0.110351563,-1.543945313, 
102,320388501,0.755826652,0.000857837,-0.029677281,-0.654098332,0.233522102,0.233165428,9.31914711,-6.229894638,-7.984086514,6.020895958,-0.946777344,0.112304688,-1.543457031, 
103,320396834,0.756117284,0.000179085,-0.029596157,-0.653766572,0.244324505,0.186641395,9.373063087,-7.171371937,-6.530759811,5.453770638,-0.947265625,0.110839844,-1.544433594, 
104,320405167,0.756356418,-0.000569094,-0.02955257,-0.653491557,0.261312008,0.138002351,9.571466446,-8.046021461,-6.196749687,5.291069508,-0.946289063,0.112792969,-1.543945313, 
105,320413500,0.75660634,-0.00126537,-0.029510809,-0.653203309,0.272090226,0.162953004,9.524723053,-6.970685005,-7.086307049,4.966767311,-0.948730469,0.1171875,-1.546386719, 
106,320421833,0.756818295,-0.00211629,-0.029750125,-0.652944624,0.341044515,0.16323255,9.522405624,-6.580168724,-10.07643604,4.909852028,-0.948242188,0.116699219,-1.544921875, 
107,320430166,0.757063866,-0.002966612,-0.030042624,-0.652643144,0.379162997,0.150237441,9.507660866,-5.527041435,-11.94215393,4.983161449,-0.94921875,0.118164063,-1.54296875, 
108,320438499,0.757275164,-0.00373285,-0.0304871,-0.652373552,0.467687786,0.127591059,9.416049957,-3.852048635,-11.45333004,4.977576733,-0.950195313,0.12109375,-1.543457031, 
109,320446832,0.757521093,-0.004358332,-0.030729797,-0.652072489,0.541529477,0.121611401,9.348744392,-3.591013432,-9.360799789,5.082722664,-0.951171875,0.12109375,-1.54296875, 
110,320455165,0.757728636,-0.004999809,-0.03105942,-0.651811123,0.595280945,0.107852921,9.334207535,-3.588478088,-9.141849518,4.808701515,-0.955566406,0.122558594,-1.541992188, 
111,320463498,0.757902443,-0.005675998,-0.031334545,-0.651590288,0.63347286,0.064469196,9.28619957,-3.835348129,-10.10002708,3.602860451,-0.950195313,0.124511719,-1.541503906, 
112,320471831,0.757997632,-0.006447301,-0.031721093,-0.651453674,0.600551784,0.119906984,9.273292542,-4.491276741,-10.93876362,2.550755024,-0.954101563,0.125976563,-1.538574219, 
113,320480164,0.758088887,-0.007216106,-0.031977218,-0.651327074,0.544595361,0.161572844,9.200095177,-4.987194538,-10.66118336,1.80322969,-0.954589844,0.125976563,-1.540527344, 
114,320488497,0.758148789,-0.007972891,-0.032211445,-0.651236951,0.563707232,0.202849239,9.141444206,-5.728034973,-9.233752251,1.758609533,-0.955566406,0.123535156,-1.537109375, 
115,320496830,0.758259892,-0.008744971,-0.032299176,-0.651093185,0.564756513,0.244982615,9.054859161,-6.497820377,-8.850589752,2.296969652,-0.954101563,0.126953125,-1.534179688, 
116,320505163,0.758334458,-0.009744554,-0.032577276,-0.650978267,0.584650397,0.240654022,9.059200287,-7.854298592,-11.86192703,2.247483015,-0.956542969,0.128417969,-1.540039063, 
117,320513496,0.758387268,-0.010951309,-0.032909721,-0.650880933,0.689122558,0.197445661,9.003612518,-8.879150391,-15.24981976,1.608330846,-0.958984375,0.130859375,-1.535644531, 
118,320521829,0.758409917,-0.012190392,-0.03321664,-0.650816798,0.747180045,0.136435866,9.017807961,-10.12349033,-14.3256321,1.356517315,-0.963378906,0.132324219,-1.533691406, 
119,320530162,0.758423626,-0.013556151,-0.033206459,-0.6507743,0.76366663,0.070986494,9.204421043,-13.66207504,-13.03711224,0.812086761,-0.963867188,0.135253906,-1.533691406, 
120,320538495,0.758361042,-0.015071011,-0.033407871,-0.650803745,0.852227867,-0.045015514,9.448933601,-13.99995041,-15.71697617,-0.243130401,-0.963378906,0.13671875,-1.533691406, 
121,320546828,0.758217692,-0.016546516,-0.033608027,-0.650924504,0.872600675,-0.185108379,9.684389114,-13.01918411,-16.1610527,-2.201493263,-0.963378906,0.136230469,-1.531738281, 
122,320555161,0.75798732,-0.017959818,-0.033965211,-0.651136756,0.891849458,-0.201921597,9.75770092,-11.6680584,-16.46939659,-3.735761404,-0.966308594,0.139648438,-1.529785156, 
123,320563494,0.757710934,-0.01935957,-0.034420051,-0.651394427,0.784034073,-0.167749166,9.7257061,-9.964683533,-18.07038689,-4.681386948,-0.970214844,0.143554688,-1.529296875, 
124,320571827,0.757391632,-0.02078278,-0.035031274,-0.651689231,0.566201925,-0.109457538,9.711050034,-9.554727554,-19.2286377,-5.451889515,-0.969726563,0.142089844,-1.526855469, 
125,320580160,0.757029355,-0.018342111,-0.037172109,-0.652064621,0.801419735,-0.88158524,11.61120987,45.10983276,-1.162760258,-9.283922195,-0.973144531,0.138671875,-1.527832031, 
126,320588493,0.756863475,-0.013169128,-0.039104715,-0.652269185,1.179696918,-0.163734287,10.97328186,71.05983734,26.1931572,-6.781197071,-0.969726563,0.132324219,-1.532226563, 
127,320596826,0.756973445,-0.008822098,-0.040019497,-0.652159393,0.114044569,-0.122459069,9.491477966,54.44570541,28.80433464,-1.066631436,-0.968261719,0.122558594,-1.533691406, 
128,320605159,0.756839514,-0.00497982,-0.040952299,-0.652297735,0.824993134,0.425599366,9.388360023,48.29521179,24.65136719,-4.899656773,-0.9609375,0.118164063,-1.534667969, 
129,320613492,0.756742299,-0.001582488,-0.042208347,-0.652347445,0.514285564,0.398158908,8.792027473,47.55196762,16.59648514,-4.696918011,-0.962402344,0.108398438,-1.537109375, 
130,320621825,0.756458819,0.00153493,-0.043832164,-0.652569234,0.039275419,0.625141501,8.883764267,46.901371,10.86517048,-6.729257107,-0.956054688,0.102050781,-1.542480469, 
131,320630158,0.756257415,0.004641004,-0.045662262,-0.652662456,0.179664433,0.820769906,8.808550835,49.58690262,7.963394642,-6.207726002,-0.958007813,0.09765625,-1.540039063, 
132,320638491,0.756030858,0.008157508,-0.047832008,-0.652735233,0.209058836,0.794107497,8.831475258,56.04338074,8.805161476,-4.894971371,-0.958984375,0.085449219,-1.545898438, 
133,320646824,0.755872905,0.011837382,-0.050002299,-0.652698994,0.300047845,0.666169226,9.200713158,58.58221054,9.476311684,-5.079037189,-0.954101563,0.081054688,-1.544433594, 
134,320655157,0.755626917,0.015358552,-0.052239209,-0.652735353,0.445568293,0.619532764,9.572384834,56.72590256,8.134272575,-4.682551861,-0.955078125,0.075683594,-1.545898438, 
135,320663490,0.755480826,0.018577866,-0.054334864,-0.652649462,0.426139951,0.685768306,9.664949417,53.11098099,6.06340456,-4.159941673,-0.950683594,0.06640625,-1.544921875, 
136,320671823,0.755291939,0.02116134,-0.056129787,-0.652637541,0.427655131,0.740927994,9.664272308,43.03974533,4.354683399,-3.084227562,-0.952148438,0.059570313,-1.548339844, 
137,320680156,0.755244792,0.022798048,-0.057426259,-0.652524292,0.415997505,0.793329477,9.553919792,29.52429962,0.232807964,-1.908262014,-0.948730469,0.055175781,-1.549316406, 
138,320688489,0.755130053,0.023573821,-0.058413666,-0.652541816,0.372962534,0.813316703,9.375008583,16.97402,-3.436752796,-1.559920192,-0.953125,0.051757813,-1.545898438, 
139,320696822,0.755120993,0.023896102,-0.058784187,-0.652507424,0.384441108,0.81266731,9.197293282,7.522030354,-1.941444159,-1.557614684,-0.949707031,0.050292969,-1.547363281, 
140,320705155,0.755049348,0.024144499,-0.058547404,-0.652602434,0.429436147,0.772998869,9.099740028,0.437491119,4.549395561,-1.956709862,-0.948242188,0.045410156,-1.548828125, 
141,320713488,0.755095363,0.02451692,-0.057377804,-0.652639091,0.455314845,0.689435244,9.151486397,-5.830402851,14.51297569,-2.347378492,-0.947753906,0.052246094,-1.55078125, 
142,320721821,0.755136013,0.02519704,-0.055383921,-0.652738452,0.597821176,0.722024441,9.286148071,-10.88631439,26.75475693,-1.928599715,-0.946777344,0.053222656,-1.551757813, 
143,320730154,0.7553249,0.026071848,-0.052958988,-0.652686715,0.544502616,0.793116271,9.363780975,-11.81383514,32.21417618,-0.953285992,-0.944335938,0.055175781,-1.551757813, 
144,320738487,0.755368829,0.027056731,-0.050892569,-0.652760148,0.501635194,0.844937384,9.200959206,-8.347006798,30.25742722,-1.882635117,-0.937011719,0.054199219,-1.556640625, 
145,320746820,0.75544256,0.028213322,-0.049051315,-0.652766943,0.361164212,0.935142875,9.175197601,-3.614362717,28.60686684,-2.777212381,-0.935546875,0.0546875,-1.55859375, 
146,320755153,0.755417109,0.029701704,-0.047391895,-0.652852893,0.109516375,0.983760118,9.274630547,0.559543431,30.495821,-2.829107285,-0.932617188,0.055664063,-1.561523438, 
147,320763486,0.755502403,0.031527322,-0.045688856,-0.652790129,-0.087518811,0.975865901,9.287466049,4.617277145,33.2417984,-2.400478601,-0.925292969,0.058105469,-1.560546875, 
148,320771819,0.755462646,0.033911198,-0.043976691,-0.652834296,-0.109562881,0.975536048,9.283654213,9.429869652,39.08714676,-3.120317698,-0.921386719,0.053710938,-1.565429688, 
149,320780152,0.755480587,0.037072133,-0.041662928,-0.652793229,0.032702766,0.921497166,9.183655739,13.01231956,51.47493362,-4.353085995,-0.916015625,0.053222656,-1.565917969, 
150,320788485,0.755352318,0.040669505,-0.038954534,-0.652894676,-0.066364788,0.87304765,9.277304649,13.11415005,60.24767685,-5.714543343,-0.90625,0.053222656,-1.570800781, 
151,320796818,0.755126476,0.044129439,-0.036082547,-0.653096437,-0.260400295,0.845172286,9.371970177,11.11484814,59.64553452,-9.633252144,-0.893554688,0.052734375,-1.575683594, 
152,320805151,0.754684508,0.047059633,-0.033583175,-0.653535843,-0.49287352,1.138020158,9.501163483,8.07946682,51.72333527,-11.57491016,-0.891601563,0.049316406,-1.579101563, 
153,320813484,0.754294932,0.049954891,-0.030634411,-0.653915346,-0.502898335,0.757104099,9.078077316,4.613598347,55.15247345,-12.75668144,-0.885253906,0.049316406,-1.583496094, 
154,320821817,0.753803074,0.053167146,-0.027012911,-0.654388845,-0.239567518,0.846566021,9.27829361,0.943375945,65.85543823,-13.25294685,-0.875488281,0.045898438,-1.585449219, 
155,320830150,0.753351212,0.056512911,-0.022693008,-0.654792786,-0.597174287,0.834501922,9.277083397,-2.982062101,73.31900024,-14.75270462,-0.865234375,0.047851563,-1.587890625, 
156,320838483,0.75269717,0.060300712,-0.01802313,-0.655352175,-0.766750038,0.812289238,9.222450256,-2.422647715,81.7831955,-16.57728958,-0.853027344,0.048339844,-1.594238281, 
157,320846816,0.751645923,0.065282322,-0.012927814,-0.656201065,-1.101268768,0.607197702,9.309080124,7.411516666,95.56038666,-25.83441925,-0.841796875,0.046386719,-1.599121094, 
158,320855149,0.750428617,0.070064507,-0.00775382,-0.657181978,-0.770881772,0.695794344,9.869350433,3.715018511,95.47168732,-26.70608139,-0.83203125,0.045898438,-1.602539063, 
159,320863482,0.749301016,0.074824445,-0.002155759,-0.657985449,-1.208966255,0.720659614,9.696975708,0.758598149,98.70346832,-26.62146568,-0.813964844,0.044921875,-1.611816406, 
160,320871815,0.748021841,0.079894178,0.00423902,-0.658834219,-1.235055804,0.676116288,9.528966904,-4.274334431,110.7869797,-27.1429081,-0.799804688,0.043945313,-1.616210938, 
161,320880148,0.746874332,0.085025102,0.011582462,-0.659405589,-1.549979448,0.694033623,9.424521446,-11.09020424,120.2685852,-26.29283905,-0.782714844,0.04296875,-1.618652344, 
162,320888481,0.745447397,0.090446696,0.019480737,-0.660112441,-1.66392529,0.733534276,9.269087791,-14.0974884,129.6144562,-28.66801453,-0.766113281,0.043457031,-1.62109375, 
163,320896814,0.74404943,0.09625829,0.028278651,-0.660549164,-1.671639681,0.712514102,9.259895325,-16.89903831,141.5450439,-28.9247818,-0.746582031,0.045898438,-1.62890625, 
164,320905147,0.742514551,0.102608338,0.037961517,-0.660834789,-1.87120986,0.626164496,9.277330399,-20.77859879,156.9029541,-27.31672859,-0.724121094,0.048828125,-1.632324219, 
165,320913480,0.740969479,0.109554276,0.04870506,-0.660749614,-2.272212982,0.524485052,9.251446724,-22.88834,172.5137482,-27.07515526,-0.701660156,0.05078125,-1.639648438, 
166,320921813,0.739171386,0.116974875,0.060088739,-0.660554409,-2.58005476,0.550802827,9.220086098,-25.18179703,184.847168,-26.63957405,-0.678222656,0.0546875,-1.645996094, 
167,320930146,0.737447143,0.123613372,0.071688436,-0.66011554,-2.848950624,0.866163135,8.993149757,-33.64027023,179.1235657,-26.60539246,-0.650390625,0.057128906,-1.649414063, 
168,320938479,0.735416293,0.129286483,0.082125224,-0.660078526,-2.673401833,0.839001358,8.721017838,-33.72759247,159.3273773,-30.32719421,-0.622558594,0.063476563,-1.65234375, 
169,320946812,0.733217061,0.134364322,0.091430701,-0.66028744,-2.777853727,0.875298142,8.613251686,-27.7972393,141.27948,-32.58998489,-0.600585938,0.067382813,-1.65625, 
170,320955145,0.730937898,0.139323369,0.099532738,-0.660614908,-3.102071047,0.832220018,8.602869034,-18.87063026,128.9005737,-32.85707092,-0.583496094,0.069335938,-1.653808594, 
171,320963478,0.728620172,0.14442353,0.10684339,-0.660938084,-3.345443964,0.785028636,8.57383728,-9.150952339,121.3535843,-31.01894951,-0.56640625,0.0703125,-1.659667969, 
172,320971811,0.72640866,0.149629787,0.113185607,-0.661158621,-3.618865967,0.761239648,8.732973099,-0.690017343,113.592865,-27.3801918,-0.547851563,0.07421875,-1.658691406, 
173,320980144,0.724356711,0.15457426,0.118522681,-0.661336958,-3.778433323,0.699813306,8.736868858,6.423801899,100.0727615,-23.404953,-0.533203125,0.070800781,-1.66015625, 
174,320988477,0.722408235,0.159406751,0.123020329,-0.661499739,-3.963871241,0.542982161,8.714995384,11.71724796,91.49255371,-21.15026093,-0.520019531,0.068847656,-1.66015625, 
175,320996810,0.720539689,0.164187878,0.127701715,-0.661481321,-4.122429371,0.440043598,8.577134132,9.988145828,92.15776825,-18.65979767,-0.506347656,0.071777344,-1.657226563, 
176,321005143,0.718842089,0.169003695,0.13270478,-0.661130548,-4.329863071,0.414809287,8.334414482,5.503418922,97.0632782,-14.92952347,-0.491699219,0.070800781,-1.659179688, 
177,321013476,0.717105448,0.174063981,0.138282061,-0.660560131,-4.59186697,0.348606259,8.028822899,3.313310623,104.5551529,-13.51992798,-0.479492188,0.070800781,-1.66015625, 
178,321021809,0.715227723,0.17975609,0.144567207,-0.659725308,-4.722798824,0.299211264,8.03203392,2.027853489,119.1617737,-13.16902161,-0.460449219,0.068847656,-1.657226563, 
179,321030142,0.713281274,0.186202437,0.151924059,-0.658390224,-4.778259754,0.128707603,8.058418274,-0.180442467,136.8441315,-9.497774124,-0.441894531,0.068847656,-1.66015625, 
180,321038475,0.711209357,0.193742618,0.16010648,-0.656514347,-4.994307041,0.020511825,8.244216919,1.347824931,157.565155,-5.681912422,-0.418457031,0.073242188,-1.658203125, 
181,321046808,0.709028065,0.202551529,0.169476122,-0.653857827,-5.026217461,-0.034466576,8.421145439,2.544489861,181.791275,1.180799484,-0.394042969,0.070800781,-1.655273438, 
182,321055141,0.706882596,0.212532595,0.17959179,-0.650303006,-5.376304626,0.249347508,8.231188774,4.1398983,203.1846161,10.33321095,-0.365722656,0.070800781,-1.653808594, 
183,321063474,0.704748929,0.222595334,0.189799756,-0.646340787,-5.619329929,0.251595378,7.785987377,4.033545971,204.7761688,15.00880814,-0.334472656,0.070800781,-1.648925781, 
184,321071807,0.702534199,0.232823104,0.19974038,-0.642139375,-5.684045792,0.304446816,7.636632919,6.672091961,205.7909851,17.17685699,-0.299804688,0.072265625,-1.644042969, 
185,321080140,0.700281441,0.243231744,0.20978491,-0.637522399,-5.829447269,0.437534779,7.512419701,7.4279809,208.5867462,21.77555656,-0.274902344,0.067382813,-1.637207031, 
186,321088473,0.698132277,0.253442079,0.219270512,-0.632692039,-6.114695072,0.654547811,7.22535944,8.512462616,203.1162262,25.28020859,-0.247070313,0.068847656,-1.6328125, 
187,321096806,0.696254671,0.26099211,0.227047473,-0.628937364,-6.743007183,1.489707947,7.105469704,1.046697736,157.7325592,16.06980515,-0.215332031,0.063964844,-1.623535156, 
188,321105139,0.695092916,0.263092101,0.230727896,-0.628007352,-6.427465916,1.377182007,6.689832687,-10.36082649,60.2557869,-7.919601917,-0.203125,0.066894531,-1.620605469, 
189,321113472,0.694385767,0.261839032,0.230871737,-0.629259229,-6.005860806,1.137784481,6.834609032,-5.766318798,-13.15915585,-21.91292763,-0.202148438,0.069824219,-1.62109375, 
190,321121805,0.694201231,0.258749664,0.229146197,-0.631368041,-6.46466589,0.9680264,6.636771202,-7.109314919,-50.33307266,-25.45197678,-0.205566406,0.067382813,-1.623046875, 
191,321130138,0.694330633,0.255165517,0.227191478,-0.633387327,-6.693014145,0.501841903,6.847008705,-10.49112988,-58.82011414,-21.92618561,-0.21484375,0.076171875,-1.623046875, 
192,321138471,0.694799662,0.251802087,0.225338355,-0.634879351,-6.680927277,0.430054545,7.258364677,-12.85503864,-53.81052399,-14.28926086,-0.221191406,0.075195313,-1.624511719, 
193,321146804,0.695435464,0.248807013,0.223711789,-0.635938406,-6.591167927,0.278036922,7.106600285,-12.49702263,-48.85697556,-7.688476086,-0.228515625,0.080566406,-1.626464844, 
194,321155137,0.695716679,0.247067064,0.222636148,-0.636686325,-6.449869156,0.039375745,7.092541695,-5.788219452,-29.05059433,-6.487948895,-0.237792969,0.079589844,-1.628417969, 
195,321163470,0.695701301,0.246782869,0.222879142,-0.636728227,-6.340424538,0.022919079,7.447603226,-3.803188562,-1.856558323,-1.701617599,-0.240722656,0.080078125,-1.629882813, 
196,321171803,0.695672691,0.247432336,0.223999456,-0.636114001,-6.648940563,-0.038159303,7.056941986,-5.272987366,18.44937706,3.691064119,-0.233398438,0.08203125,-1.627441406, 
197,321180136,0.695005357,0.249469191,0.226163387,-0.635281861,-6.771938801,-0.059484646,6.893770218,1.175874352,41.76696777,1.606168628,-0.231445313,0.081542969,-1.626953125, 
198,321188469,0.693799555,0.25338918,0.229671195,-0.633788168,-6.56709671,-0.0278141,6.944395065,6.423186779,76.51311493,3.776428699,-0.221679688,0.082519531,-1.625, 
199,321196802,0.692124784,0.25941965,0.234671742,-0.631343007,-6.610866547,0.019366443,7.033690453,13.01968288,112.3332367,10.99108887,-0.210449219,0.083007813,-1.619628906, 
200,321205135,0.69026643,0.267255306,0.240235984,-0.62800771,-6.377779484,0.020968754,6.994791031,22.25096703,138.7489319,20.92691994,-0.191894531,0.078613281,-1.614746094, 
201,321213468,0.688266337,0.276437819,0.246404842,-0.623823881,-6.667873859,0.24818489,6.81831646,28.38267708,158.0388641,30.82527924,-0.166015625,0.071777344,-1.604980469, 
202,321221801,0.686372101,0.285719633,0.252478182,-0.619283855,-6.823561668,0.516698062,6.472322464,27.6848793,160.6452179,34.96450043,-0.142089844,0.068847656,-1.602050781, 
203,321230134,0.684573829,0.294014871,0.258074492,-0.615070343,-7.059428692,0.874896407,6.453625679,24.02652359,144.4555511,32.06980896,-0.120605469,0.064941406,-1.594238281, 
204,321238467,0.683564603,0.298023432,0.2615695,-0.612782896,-7.430402756,1.460305333,6.222409725,4.258621216,79.48922729,12.97265911,-0.107421875,0.059082031,-1.587402344, 
205,321246800,0.683198333,0.297524095,0.261995375,-0.613252044,-6.983632565,1.185386658,6.114471436,-4.177873611,-2.655107498,-10.23000431,-0.102539063,0.064453125,-1.589355469, 
206,321255133,0.683403552,0.294892997,0.25999105,-0.615144253,-6.852290154,1.001271367,6.206369877,-1.71407032,-49.65460968,-17.44675446,-0.105957031,0.0625,-1.586425781, 
207,321263466,0.683994532,0.29154706,0.257339478,-0.617194057,-7.21509552,0.717583776,6.068964958,-3.223218441,-65.53823853,-14.75000191,-0.116699219,0.064941406,-1.593261719, 
208,321271799,0.684943974,0.288077116,0.254256666,-0.619045436,-7.332734108,0.631204963,6.298335075,-3.598085642,-69.38922882,-9.396789551,-0.128417969,0.066894531,-1.596191406, 
209,321280132,0.686105132,0.284461141,0.251088351,-0.620722353,-7.175150394,0.666602612,6.348329544,-4.96899271,-73.25756073,-5.319807053,-0.1328125,0.065917969,-1.596679688, 
210,321288465,0.687630177,0.280388057,0.247430503,-0.622354805,-6.815851212,0.67393744,6.48663044,-7.40280056,-81.09594727,-2.258663654,-0.1484375,0.067871094,-1.602050781, 
211,321296798,0.689434946,0.275778383,0.243363813,-0.624019206,-6.622005939,0.698603451,6.59300375,-9.209809303,-92.46574402,0.360420614,-0.153320313,0.069824219,-1.604980469, 
212,321305131,0.691638947,0.270668983,0.238483965,-0.625699222,-6.591598511,0.572636962,6.712953091,-9.166871071,-104.029747,4.27075386,-0.168457031,0.071777344,-1.607910156, 
213,321313464,0.694164693,0.265177101,0.233378574,-0.62717706,-6.705200195,0.530794084,6.855465412,-11.97892475,-111.6197891,9.29018116,-0.184570313,0.069824219,-1.615722656, 
214,321321797,0.697110772,0.259045333,0.227768958,-0.628532887,-6.57613945,0.709206641,7.02867794,-16.40465927,-121.0104218,13.12498283,-0.198730469,0.074707031,-1.62109375, 
215,321330130,0.700293481,0.252467602,0.221918657,-0.629763007,-6.447299957,0.488444269,6.919192791,-19.07087135,-129.3474579,16.53757095,-0.219726563,0.077148438,-1.624023438, 
216,321338463,0.70357734,0.245530292,0.215121403,-0.631202698,-6.144177437,0.532847583,7.194901943,-14.80617714,-140.7409973,16.88389969,-0.23828125,0.075683594,-1.625976563, 
217,321346796,0.707074225,0.237677634,0.207406506,-0.632880867,-6.171416283,0.53013581,7.375600338,-14.93329144,-160.9248657,17.47621727,-0.259765625,0.078613281,-1.633300781, 
218,321355129,0.710503399,0.229042724,0.198430359,-0.635098457,-6.389523029,0.390711159,7.406655788,-10.57840633,-179.6519012,12.87362289,-0.28125,0.076660156,-1.640625, 
219,321363462,0.713629067,0.219643906,0.18864654,-0.637889326,-6.405146122,0.543953001,7.5223279,-7.658470154,-197.1417084,5.694905281,-0.3046875,0.080566406,-1.6484375, 
220,321371795,0.716466665,0.209783614,0.177753389,-0.641147673,-6.068241596,0.532288074,7.746205807,-1.179645658,-210.8018951,0.119238906,-0.337402344,0.083007813,-1.651855469, 
221,321380128,0.71908021,0.199493349,0.165981382,-0.644652128,-5.548614502,0.540253282,7.738177776,4.43402338,-225.4665833,-2.2214818,-0.370605469,0.083007813,-1.654296875, 
222,321388461,0.721801579,0.188255757,0.152818829,-0.648235142,-4.950602055,0.445899576,7.76099062,6.426800251,-246.035553,-0.963108242,-0.407714844,0.079589844,-1.654785156, 
223,321396794,0.724496126,0.176610574,0.13864851,-0.651682973,-4.779474258,0.468386561,8.242077827,12.04402637,-261.4086609,2.415132523,-0.443847656,0.077636719,-1.656738281, 
224,321405127,0.727063656,0.165122941,0.123836413,-0.654811084,-4.762321472,0.363330841,8.688690186,18.17456818,-263.2388,5.797394753,-0.474609375,0.07421875,-1.661132813, 
225,321413460,0.729255676,0.154360771,0.109526299,-0.657543182,-4.370195389,0.445163459,9.073671341,22.02305984,-252.3322754,6.945922852,-0.517089844,0.074707031,-1.658691406, 
226,321421793,0.73115164,0.143910393,0.095411554,-0.660002887,-3.761404991,0.468957216,8.934394836,22.66683006,-244.3486481,6.583617687,-0.556152344,0.067871094,-1.657714844, 
227,321430126,0.732701719,0.133775517,0.081824154,-0.662236571,-3.341423035,0.471490562,8.962134361,22.43665886,-237.5241547,5.517070293,-0.58984375,0.0625,-1.654785156, 
228,321438459,0.733956039,0.123000875,0.068025529,-0.664493799,-3.307863474,0.66980505,9.039860725,17.49177551,-242.9533234,1.822932482,-0.625,0.059570313,-1.649902344, 
229,321446792,0.73462224,0.111065522,0.053428866,-0.667188287,-2.893849611,0.715031981,8.956717491,15.52346611,-264.0626526,-7.320552349,-0.661132813,0.059082031,-1.646484375, 
230,321455125,0.734787464,0.098182268,0.037593432,-0.67010057,-2.402425528,0.715947092,9.174355507,17.19047165,-282.9953918,-13.30191612,-0.697265625,0.053222656,-1.637207031, 
231,321463458,0.734627068,0.084475219,0.021351399,-0.672853112,-1.933111668,0.681335211,9.294506073,14.05752087,-296.6089478,-14.25600815,-0.741699219,0.051269531,-1.624511719, 
232,321471791,0.734296679,0.070941165,0.005306081,-0.675091088,-1.304310799,0.358016819,8.944393158,12.94898224,-290.0853577,-11.11593151,-0.784667969,0.048339844,-1.615234375, 
233,321480124,0.733977377,0.058745664,-0.009477051,-0.67656225,-1.056216598,0.325126678,8.867968559,16.08611298,-266.7875366,-7.449076176,-0.819824219,0.041992188,-1.599609375, 
234,321488457,0.73347795,0.047374189,-0.02383123,-0.677641571,-0.734333694,0.474868149,9.556138992,19.20646667,-251.8761292,-2.577654362,-0.857421875,0.040527344,-1.583984375, 
235,321496790,0.732992649,0.035373177,-0.037832458,-0.678262115,-0.673898697,0.774949193,9.689873695,10.93146992,-256.4453125,-0.304852694,-0.893066406,0.038085938,-1.568847656, 
236,321505123,0.732077122,0.023609294,-0.051852353,-0.678835392,0.05080989,0.597202837,9.320563316,12.51211643,-252.0631409,-1.501616359,-0.926757813,0.038085938,-1.556640625, 
237,321513456,0.731143355,0.012428724,-0.064948924,-0.679011703,0.373593807,0.704113781,9.442249298,11.27550888,-239.5241089,1.681467414,-0.957519531,0.034179688,-1.540039063, 
238,321521789,0.730212092,0.001433647,-0.077932015,-0.678760111,0.740451753,0.73822695,9.259317398,11.24661541,-234.2666626,5.743924618,-0.989746094,0.030761719,-1.5234375, 
239,321530122,0.729381144,-0.008187375,-0.089503139,-0.678178132,1.28125155,0.624219775,9.417574883,13.45840836,-209.4498901,8.502680779,-1.018554688,0.03125,-1.5078125, 
240,321538455,0.728657246,-0.016297601,-0.099599421,-0.677401841,1.199027181,0.597216368,9.410695076,13.87007713,-178.1560211,9.75047493,-1.040039063,0.031738281,-1.490722656, 
241,321546788,0.727808654,-0.024148943,-0.109422542,-0.676563561,1.361753583,0.724812627,9.405573845,15.2336235,-175.4652557,8.860603333,-1.057617188,0.026855469,-1.474609375, 
242,321555121,0.726580381,-0.032601509,-0.119993389,-0.675736606,1.758481145,0.767669499,9.127971649,14.77758026,-186.8460236,5.929764271,-1.083007813,0.024902344,-1.4609375, 
243,321563454,0.725012302,-0.041279797,-0.131158888,-0.674870789,1.999974012,0.766868472,8.907522202,19.23871613,-197.7462463,3.144192934,-1.106933594,0.024414063,-1.441894531, 
244,321571787,0.723205745,-0.049867578,-0.142792374,-0.673867464,2.14946866,0.712922513,8.801517487,23.32163429,-199.8058929,1.995023131,-1.127929688,0.022460938,-1.421875, 
245,321580120,0.721502781,-0.057558697,-0.153773442,-0.672662437,2.359050035,0.775387228,8.893769264,27.94428253,-187.2060547,3.467854261,-1.147949219,0.015625,-1.408691406, 
246,321588453,0.719843149,-0.065025702,-0.16469349,-0.671173811,2.37904048,0.920536637,9.134928703,28.95813751,-182.4034271,6.438446999,-1.169433594,0.015136719,-1.383789063, 
247,321596786,0.71807158,-0.072722889,-0.175656065,-0.669499576,2.779416561,0.989340127,9.062623978,28.68456841,-187.6348419,7.491826057,-1.186523438,0.013671875,-1.366699219, 
248,321605119,0.716102839,-0.080831826,-0.187209681,-0.667544365,2.990939856,1.041007638,8.908385277,29.2535305,-195.7627258,9.088846207,-1.206542969,0.010253906,-1.349121094, 
249,321613452,0.71393317,-0.089417949,-0.199042082,-0.665346622,3.352287054,1.089073896,8.587340355,28.79853249,-205.9820557,10.26628399,-1.227050781,0.004882813,-1.325683594, 
250,321621785,0.711640775,-0.098318838,-0.2113543,-0.662744582,3.949603319,0.97495532,8.103128433,29.77492332,-212.1081238,13.67198467,-1.244628906,0.006347656,-1.30078125, 
251,321630118,0.709404469,-0.106982499,-0.223302543,-0.65987581,4.11537075,1.03507328,7.959327698,30.88916206,-208.9087524,16.26011276,-1.265625,0.001464844,-1.274902344, 
252,321638451,0.706996977,-0.115392447,-0.234867468,-0.657021582,4.255505085,1.069378257,8.052001953,28.33317947,-201.0511169,14.6859827,-1.282226563,0.000488281,-1.254882813, 
253,321646784,0.70454663,-0.123442911,-0.244962633,-0.654499292,4.610197544,1.205589175,8.214197159,18.64636421,-185.3997955,11.84601212,-1.299316406,0.001464844,-1.231933594, 
254,321655117,0.701913357,-0.131371588,-0.253952473,-0.652355313,4.709845543,1.221638799,7.986088276,7.059504509,-171.2987366,8.396473885,-1.314941406,0.002929688,-1.211914063, 
255,321663450,0.699197352,-0.138860419,-0.262206823,-0.650452673,5.215465546,1.350019693,8.024993896,4.929920197,-162.3615265,4.665062904,-1.326660156,0.001953125,-1.189453125, 
256,321671783,0.696676672,-0.14588654,-0.269639373,-0.648578286,5.589420319,1.378696799,7.954642296,1.088356972,-147.3131409,6.496881008,-1.338867188,0.000976563,-1.170410156, 
257,321680116,0.694417059,-0.152375221,-0.275822461,-0.646906972,5.509358406,1.215218544,7.862235546,-3.952618599,-131.4020996,6.893011093,-1.345214844,0.001953125,-1.155273438, 
258,321688449,0.692385316,-0.158514872,-0.281182557,-0.645300031,5.700874805,1.260678172,7.660754681,-8.886968613,-117.2195282,9.206419945,-1.357421875,0.005859375,-1.137207031, 
259,321696782,0.690666497,-0.164381355,-0.285565108,-0.643747926,5.689406872,1.187456369,7.818581104,-13.33590603,-106.3396072,11.99715137,-1.364746094,0.005859375,-1.125, 
260,321705115,0.689068437,-0.170201436,-0.289430112,-0.642220259,5.88714695,1.168702245,7.70246315,-18.45046043,-98.30937195,14.36181355,-1.370605469,0.008300781,-1.109375, 
261,321713448,0.687681198,-0.175944194,-0.29268375,-0.640683055,5.916412354,1.118470788,7.464955807,-21.45594215,-93.1745224,16.85808372,-1.377929688,0.012695313,-1.09765625, 
262,321721781,0.686099648,-0.181983948,-0.296294719,-0.639029801,6.092046261,0.933161736,6.945709705,-22.24483299,-98.08074951,17.1545105,-1.383300781,0.017089844,-1.086914063, 
263,321730114,0.684517086,-0.187616363,-0.2998299,-0.63744688,6.269107819,0.730544746,6.629678249,-18.25283623,-95.75372314,14.39182854,-1.390625,0.019042969,-1.073730469, 
264,321738447,0.682892799,-0.192741841,-0.303342909,-0.635996103,6.260643005,0.847949207,6.661757946,-15.42682076,-88.80039215,11.37066269,-1.39453125,0.019042969,-1.060546875, 
265,321746780,0.681342423,-0.197485447,-0.306620181,-0.63463068,6.257899284,0.871786535,6.733675957,-12.96936607,-84.76730347,9.571295738,-1.400390625,0.0234375,-1.047851563, 
266,321755113,0.679881513,-0.201787218,-0.309911132,-0.633244157,6.595625877,0.908744156,6.49871397,-9.468866348,-78.67064667,9.325848579,-1.401367188,0.025390625,-1.038085938, 
267,321763446,0.678827167,-0.205178514,-0.312356383,-0.632082939,6.860809803,0.800416708,6.492559433,-7.07075882,-62.46684265,8.513728142,-1.40625,0.026855469,-1.027832031, 
268,321771779,0.678066552,-0.207665756,-0.314226806,-0.631159544,6.810043812,0.769663632,6.569167137,-4.898910522,-45.32800293,7.298623085,-1.411132813,0.02734375,-1.021972656, 
269,321780112,0.6777789,-0.209192559,-0.31512779,-0.630514801,6.990613937,0.806720376,6.584621429,-3.13864255,-27.00085449,6.68730545,-1.409667969,0.029785156,-1.01953125, 
270,321788445,0.677957237,-0.209469065,-0.31504944,-0.630270362,6.942985058,0.632786632,6.659230232,-1.437624693,-1.979493618,5.134207249,-1.406738281,0.028808594,-1.016601563, 
271,321796778,0.678666651,-0.208325446,-0.313538909,-0.630639076,7.030673981,0.613733649,6.730144024,-0.661206365,25.94909477,1.241894245,-1.408203125,0.030273438,-1.015625, 
272,321805111,0.67994231,-0.205599472,-0.31082207,-0.631503761,7.221135616,0.590805411,6.52374649,2.056790352,56.58541489,-1.091246128,-1.404296875,0.027832031,-1.0234375, 
273,321813444,0.68200022,-0.201095253,-0.306534171,-0.632829547,7.0857234,0.611066163,6.543297768,6.395369053,89.64516449,-2.523685694,-1.404296875,0.031738281,-1.0390625, 
274,321821777,0.684631526,-0.194833398,-0.300993919,-0.634604037,6.876222134,0.668047071,6.586853027,10.56602478,122.0600586,-4.931138515,-1.3984375,0.028320313,-1.051269531, 
275,321830110,0.687939882,-0.186971411,-0.29387939,-0.636722326,6.713477612,0.784049034,6.652902603,13.44965935,152.9749603,-5.407993793,-1.388183594,0.030273438,-1.069335938, 
276,321838443,0.691646934,-0.1776907,-0.285450667,-0.639193594,6.385640144,0.826306999,6.886613369,13.8015976,181.9398804,-6.868991375,-1.377441406,0.026367188,-1.091308594, 
277,321846776,0.695420861,-0.167541504,-0.275551587,-0.642176807,6.200704575,0.77433759,7.096611977,8.510245323,203.6027069,-11.6583128,-1.367675781,0.023925781,-1.118652344, 
278,321855109,0.699037075,-0.156885654,-0.26534313,-0.645234287,5.84271431,0.748929083,7.397997379,8.762813568,212.0756073,-14.27415466,-1.352539063,0.025390625,-1.146972656, 
279,321863442,0.702289641,-0.146294236,-0.254862458,-0.648407698,5.222122192,1.015411139,7.956032276,5.796411991,211.67276,-18.42164803,-1.336425781,0.018066406,-1.172363281, 
280,321871775,0.704701781,-0.136449859,-0.244913101,-0.651762605,4.607475758,1.171905518,8.194840431,-0.277770549,198.6642303,-25.48960114,-1.320800781,0.016601563,-1.198242188, 
281,321880108,0.706561744,-0.127740353,-0.236062348,-0.654772818,4.43492794,0.89155674,7.722500324,0.024628758,174.0104218,-25.89346886,-1.305664063,0.014648438,-1.22265625, 
282,321888441,0.707997501,-0.119810052,-0.228300706,-0.657467842,4.182759762,0.993995667,8.231977463,1.21356523,155.8033447,-25.47855568,-1.294433594,0.014160156,-1.239746094, 
283,321896774,0.709262013,-0.112380303,-0.220555902,-0.660055518,3.868936062,1.06644547,8.537881851,-2.095337391,149.0541077,-24.92197037,-1.275878906,0.010742188,-1.260742188, 
284,321905107,0.710446119,-0.104882784,-0.212384582,-0.66269058,3.82482481,1.248341084,8.727489471,-6.924113274,155.0016632,-25.17411423,-1.267578125,0.011230469,-1.277832031, 
285,321913440,0.711850524,-0.096880049,-0.203175396,-0.665284276,3.878956079,1.157071829,8.799800873,-9.621362686,168.9418182,-23.15890884,-1.253417969,0.006835938,-1.295898438, 
286,321921773,0.713634491,-0.088322364,-0.193560332,-0.667427659,3.744012594,1.113226533,8.893820763,-7.521273136,179.8363495,-15.86860275,-1.239257813,0.007324219,-1.316894531, 
287,321930106,0.715825081,-0.079288594,-0.183351949,-0.669096231,3.539565086,1.138224125,8.825678825,-5.133920193,189.1202393,-8.362464905,-1.217773438,0.007324219,-1.336425781, 
288,321938439,0.718227446,-0.069486819,-0.172743082,-0.670433342,3.194396973,1.158654928,8.907746315,-1.591392636,201.7127075,-4.311466694,-1.197753906,0.007324219,-1.360351563, 
289,321946772,0.720639884,-0.059293956,-0.161809936,-0.671550333,2.85001111,1.094066739,8.844302177,1.232155204,206.9226532,-2.913908482,-1.175292969,0.006835938,-1.380371094, 
290,321955105,0.722717822,-0.049237363,-0.151424065,-0.672551394,2.593724489,0.942461491,8.827754974,3.509210587,200.8084869,-4.747459412,-1.15234375,0.009277344,-1.401367188, 
291,321963438,0.724424481,-0.039551072,-0.141511947,-0.673512697,2.324791908,0.848133147,8.854767799,5.462014198,190.4604492,-7.496707439,-1.133789063,0.008789063,-1.418945313, 
292,321971771,0.725961149,-0.02984195,-0.131950811,-0.674299181,2.193237782,1.018410563,9.044732094,7.772511005,188.1583862,-7.40335989,-1.110351563,0.007324219,-1.437011719, 
293,321980104,0.727544844,-0.019961393,-0.122025259,-0.674825907,1.861650229,1.055423617,9.295330048,8.041581154,191.9506836,-4.616885662,-1.087890625,0.006835938,-1.455078125, 
294,321988437,0.728968382,-0.010696641,-0.112492271,-0.675156534,0.906148732,1.03963387,9.512512207,4.366652012,183.3942719,-3.134276152,-1.068359375,0.006347656,-1.473632813, 
295,321996770,0.729552448,-0.004640424,-0.105686903,-0.67569387,0.843509376,1.177144289,9.176654816,-1.459032297,123.5792313,-8.444256783,-1.046875,0.002441406,-1.486816406, 
296,322005103,0.729326189,-0.001214939,-0.101904862,-0.676533461,1.646949053,1.203398347,8.986138344,-1.70355916,69.0506897,-15.36691856,-1.034667969,0.004882813,-1.494140625, 
297,322013436,0.729039669,0.001420674,-0.098774709,-0.677305639,1.440683722,1.048766017,8.982903481,-2.005548954,53.58460236,-14.12426567,-1.027832031,0.00390625,-1.497070313, 
298,322021769,0.728981555,0.00482726,-0.094657168,-0.67794013,0.909660995,0.994591475,9.222242355,-4.747441769,72.46724701,-11.71472549,-1.020019531,0.00390625,-1.503417969, 
299,322030102,0.72897017,0.00939261,-0.088790946,-0.678697765,0.647202492,0.884040713,9.421666145,-8.140328407,99.41055298,-14.07601738,-1.009277344,0.005859375,-1.508789063, 
300,322038435,0.728880703,0.014772964,-0.082281858,-0.679517865,0.694507778,0.892799556,9.387121201,-7.489294052,114.7950439,-16.56941795,-0.996582031,0.003417969,-1.519042969, 
301,322046768,0.728797972,0.020628083,-0.075581655,-0.680232048,0.763685107,1.046325684,9.103427887,-2.920521498,119.7054901,-15.91655922,-0.979980469,0.004882813,-1.529296875, 
302,322055101,0.728689492,0.027328242,-0.068877131,-0.680823624,0.575093091,1.014554262,9.078257561,4.172044754,129.1296387,-15.91041565,-0.968261719,0.005371094,-1.538085938, 
303,322063434,0.72859627,0.03524711,-0.061230995,-0.681289971,0.386463761,0.951980889,9.156862259,9.167528152,148.5690002,-15.86108208,-0.946777344,0.005371094,-1.550292969, 
304,322071767,0.728554428,0.044402845,-0.052735899,-0.681510031,0.057750277,0.865696967,9.435124397,12.3059473,170.2887268,-14.52523422,-0.923339844,0.002441406,-1.559082031, 
305,322080100,0.728656232,0.054451268,-0.043498516,-0.681324482,-0.208719939,0.765351653,9.755335808,15.98830509,184.9976501,-9.978355408,-0.900390625,-0.001464844,-1.569824219, 
306,322088433,0.728912234,0.065088063,-0.033831295,-0.68066597,-0.650516748,0.868702173,9.806344986,16.54088402,196.7075043,-4.704766273,-0.875488281,-0.004394531,-1.583007813, 
307,322096766,0.729142487,0.075913161,-0.023615193,-0.679728508,-0.961921036,1.038331747,9.624284744,14.95393085,202.7601166,-2.397976875,-0.847167969,-0.004394531,-1.597167969, 
308,322105099,0.729347706,0.086534217,-0.013544166,-0.678513348,-1.088698149,1.078496814,9.420068741,12.87361145,201.1265717,0.040497556,-0.820800781,-0.005371094,-1.604492188, 
309,322113432,0.729583442,0.09690138,-0.003553,-0.676982641,-1.22967279,1.075867295,9.466669083,12.6091423,196.8557129,4.061019897,-0.787597656,-0.004882813,-1.616210938, 
310,322121765,0.729804516,0.10708081,0.006269965,-0.67518872,-2.011161566,1.03887713,9.413733482,10.81561565,195.2466278,6.370013237,-0.763671875,-0.005859375,-1.623046875, 
311,322130098,0.729771435,0.116258316,0.015782848,-0.673549175,-2.456871986,1.145080328,9.377840996,5.522101879,181.1398621,3.347211123,-0.734863281,-0.008300781,-1.632324219, 
312,322138431,0.729545951,0.124263182,0.02452475,-0.67210108,-2.351202011,1.084573984,9.215691566,-0.246043354,163.7558594,0.106967583,-0.711425781,-0.0078125,-1.635253906, 
313,322146764,0.729416668,0.131726295,0.033123109,-0.670449495,-2.385162115,1.062241197,9.126943588,-2.07783246,155.3878021,-0.708210289,-0.688476563,-0.008300781,-1.642578125, 
314,322155097,0.729145765,0.139138594,0.041743696,-0.668763459,-2.611126661,1.113874793,9.043279648,-5.057243824,157.5016785,2.077538967,-0.666503906,-0.004882813,-1.645996094, 
315,322163430,0.728954792,0.146760061,0.05102364,-0.666695714,-3.047127008,1.219636559,9.108945847,-7.929294586,165.1274872,6.149255276,-0.64453125,-0.003417969,-1.654785156, 
316,322171763,0.728770137,0.153600305,0.059903733,-0.664614737,-3.539337873,1.483983397,8.870392799,-13.57751465,155.5652313,5.935996056,-0.614257813,0.000488281,-1.655761719, 
317,322180096,0.728225291,0.159020126,0.067517884,-0.663205802,-3.314969778,1.439775586,8.663389206,-13.4932766,127.1426468,-1.865908623,-0.600585938,0,-1.657226563, 
318,322188429,0.727436662,0.163719684,0.073700704,-0.662268817,-3.067476511,1.250679851,8.752485275,-8.111661911,107.0575714,-7.074198246,-0.579589844,0.003417969,-1.660644531, 
319,322196762,0.726605058,0.168093368,0.079230905,-0.661447227,-3.299397707,1.096192479,8.642830849,-3.834058762,95.65605164,-6.727876663,-0.56640625,0.005859375,-1.66015625, 
320,322205095,0.725725234,0.172656268,0.084498897,-0.660585284,-3.513594151,1.080362082,8.487018585,-0.864858866,96.58765411,-6.70556736,-0.550292969,0.004882813,-1.661132813, 
321,322213428,0.72463125,0.178071424,0.090365738,-0.659571111,-3.72282505,1.013296485,8.484519005,3.88495183,109.2365875,-6.778506756,-0.536132813,0.00390625,-1.663574219, 
322,322221761,0.723357618,0.184651688,0.096714504,-0.65825814,-3.964833736,0.884626925,8.691841125,9.843025208,127.2349472,-5.945725441,-0.517578125,0.00390625,-1.664550781, 
323,322230094,0.721861601,0.192344397,0.10396219,-0.656590819,-4.101023197,0.717154741,8.598524094,14.19662476,145.7495728,-4.397957802,-0.494628906,0.004394531,-1.663574219, 
324,322238427,0.720205545,0.201184765,0.111904263,-0.654451132,-4.347319126,0.649641335,8.40292263,17.74262428,166.1736755,-2.187829971,-0.470703125,0.000976563,-1.663574219, 
325,322246760,0.718359113,0.211550117,0.120937459,-0.65159899,-4.66027832,0.627010524,8.342597008,23.77811241,191.263916,3.406317711,-0.446777344,-0.001464844,-1.659667969, 
326,322255093,0.716543615,0.223567799,0.130709931,-0.64768666,-4.91698122,0.661355197,8.205489159,30.30698776,218.1092834,13.8316412,-0.415039063,-0.000976563,-1.662597656, 
327,322263426,0.714601994,0.237084582,0.14143756,-0.642752111,-5.27379179,0.947793067,8.010801315,36.42638397,242.5119019,23.58574104,-0.381835938,-0.011230469,-1.655761719, 
328,322271759,0.712565899,0.25124222,0.152442232,-0.637093782,-5.705852032,1.242567182,7.671145916,37.87730789,255.1743927,29.16046906,-0.343261719,-0.014160156,-1.653320313, 
329,322280092,0.710279405,0.264757991,0.163172573,-0.631491303,-6.145805359,1.571255445,7.318561554,36.21987152,245.4198761,27.20590973,-0.305664063,-0.020507813,-1.650390625, 
330,322288425,0.708056867,0.275428265,0.172116116,-0.627033472,-6.263425827,1.991380572,7.15788269,25.03549194,200.7055817,15.51733112,-0.274414063,-0.023925781,-1.643554688, 
331,322296758,0.706050932,0.281786472,0.178619176,-0.624647081,-5.903553009,2.150242329,6.99885416,9.335759163,129.5508423,-2.486807823,-0.249511719,-0.02734375,-1.638671875, 
332,322305091,0.704523444,0.284411818,0.18231982,-0.624112487,-5.487811565,1.961023211,6.877344608,-1.297250748,63.76538849,-15.92531204,-0.236816406,-0.027832031,-1.635742188, 
333,322313424,0.703374863,0.285014421,0.184578508,-0.624468923,-5.687859058,1.730687618,6.807981014,-6.684693336,26.10684395,-19.50201797,-0.229980469,-0.026367188,-1.631835938, 
334,322321757,0.702360928,0.285097271,0.186328262,-0.625052512,-6.258058071,1.462357163,6.920175076,-8.369009018,17.37775993,-21.10190582,-0.227539063,-0.022949219,-1.633300781, 
335,322330090,0.701418221,0.285014629,0.188266829,-0.625567675,-6.537670135,1.383114457,7.063903809,-11.00146198,15.98605919,-19.80003357,-0.228515625,-0.018066406,-1.629394531, 
336,322338423,0.700773597,0.284624398,0.189759478,-0.626016676,-6.502784252,1.323102593,7.17160368,-12.51167583,10.39940929,-16.83774185,-0.222167969,-0.017578125,-1.631835938, 
337,322346756,0.700213373,0.284288257,0.191192776,-0.626360059,-6.546441078,1.184033275,7.175403595,-11.04064846,8.567248344,-13.5371666,-0.22265625,-0.018066406,-1.629882813, 
338,322355089,0.699725389,0.284347653,0.192725286,-0.626408815,-6.584856033,1.091372252,7.144532681,-10.18270016,15.8031435,-10.61027813,-0.219726563,-0.014648438,-1.631347656, 
339,322363422,0.699225247,0.284879446,0.194961324,-0.626033425,-6.652008533,1.074159026,7.120844364,-11.72037983,26.38038063,-6.940170288,-0.215332031,-0.009765625,-1.630371094, 
340,322371755,0.698832631,0.285791337,0.197419792,-0.625285506,-6.556694508,1.130794168,6.950745583,-12.45000458,34.90888596,-3.474741459,-0.211914063,-0.011230469,-1.628417969, 
341,322380088,0.698303878,0.287377119,0.200381115,-0.624206483,-6.512504101,1.114809513,6.904433727,-9.600809097,45.21143723,-0.400901973,-0.203613281,-0.0078125,-1.630371094, 
342,322388421,0.697736382,0.289816439,0.203502506,-0.622701705,-6.552569389,1.111914396,6.831940174,-4.854103565,57.85386658,3.865557909,-0.198730469,-0.008789063,-1.624511719, 
343,322396754,0.697070241,0.292654067,0.206900552,-0.620998263,-6.426450253,1.223152876,6.787846565,-2.517081499,62.95119858,6.165624142,-0.189941406,-0.006347656,-1.624023438, 
344,322405087,0.696469724,0.295296878,0.209772885,-0.619455457,-6.431987762,1.208867669,6.554590225,-0.74485141,57.44504166,5.520832062,-0.183105469,-0.005859375,-1.619628906, 
345,322413420,0.695692599,0.297684819,0.212500185,-0.618255138,-6.634003639,1.269326925,6.567753792,0.781645656,50.94311142,1.834751725,-0.174804688,-0.005859375,-1.616699219, 
346,322421753,0.69514972,0.299211621,0.214535132,-0.617425323,-6.769916534,1.426268458,6.602190018,-2.469894171,36.85040283,-0.642854154,-0.166015625,-0.005859375,-1.61328125, 
347,322430086,0.694832027,0.299387813,0.21570006,-0.617291629,-6.755964279,1.499761343,6.578869343,-5.854454994,11.45046234,-4.545080662,-0.164550781,-0.007324219,-1.611816406, 
348,322438419,0.694885552,0.297677219,0.215160027,-0.618246436,-6.638185024,1.517046213,6.435585499,-8.717028618,-24.35944557,-11.61692047,-0.1640625,-0.002929688,-1.612304688, 
349,322446752,0.694931149,0.295106083,0.213630393,-0.619956136,-6.505729198,1.291962504,6.383677959,-5.258394718,-46.31432724,-16.17745781,-0.172851563,-0.001464844,-1.614257813, 
350,322455085,0.695119858,0.292197555,0.211350381,-0.621900678,-6.603559017,1.178727031,6.491919994,-2.972169161,-55.62574005,-16.36266518,-0.178710938,-0.000976563,-1.619628906, 
351,322463418,0.695340335,0.289444238,0.20903264,-0.623722315,-6.720597744,1.151880622,6.741517067,-0.645006716,-56.39828873,-13.13572216,-0.1875,0.000976563,-1.619628906, 
352,322471751,0.695722699,0.286667734,0.206293762,-0.625487506,-6.850636005,1.203902841,6.808616638,0.937791407,-58.72949219,-10.77329159,-0.194335938,-0.002441406,-1.62109375, 
353,322480084,0.696263015,0.283213556,0.202955097,-0.627548754,-6.724198818,1.415237665,6.927749634,0.859745979,-74.08283234,-10.65158939,-0.202148438,0.001464844,-1.625976563, 
354,322488417,0.697288871,0.278451681,0.198316246,-0.630019009,-6.449753284,1.403622627,6.849976063,-2.215330124,-98.60193634,-10.11685181,-0.216796875,0.003417969,-1.629394531, 
355,322496750,0.698589385,0.273034275,0.19313398,-0.632554173,-6.121882915,1.254113078,6.904691219,-3.617757082,-112.7016296,-6.95397234,-0.228027344,0.000976563,-1.632324219, 
356,322505083,0.700527489,0.266945481,0.187230229,-0.634780824,-6.071409225,1.260516763,6.991458416,-8.051470757,-123.8027802,1.369919181,-0.247558594,0.005371094,-1.634277344, 
357,322513416,0.702829897,0.260017604,0.18072097,-0.636993647,-6.051986694,1.151598692,7.043049335,-11.15502834,-140.0858459,5.800598621,-0.266601563,0.00390625,-1.641601563, 
358,322521749,0.705693841,0.251987904,0.172795743,-0.639249384,-5.926602364,1.181772232,7.624732018,-12.36337185,-162.7423859,11.5741663,-0.286621094,0.006835938,-1.645507813, 
359,322530082,0.708964348,0.242660046,0.163541883,-0.641669571,-5.780465126,1.231134176,7.862713814,-13.21044636,-190.8586426,16.06044388,-0.311523438,0.012207031,-1.650390625, 
360,322538415,0.712542295,0.232186034,0.15287213,-0.644207537,-5.262095451,1.104617357,7.904185295,-13.73779297,-213.5986938,18.78539658,-0.343261719,0.01171875,-1.654785156, 
361,322546748,0.716022372,0.221220389,0.141536132,-0.646793067,-5.096583366,1.012263417,7.979792118,-11.11402321,-226.7165375,19.44879913,-0.372070313,0.010742188,-1.655761719, 
362,322555081,0.719442129,0.210063532,0.1295432,-0.649226665,-4.837209702,0.879422486,8.142531395,-8.388896942,-232.0266876,21.1323967,-0.407226563,0.015625,-1.663085938, 
363,322563414,0.723051369,0.19851239,0.117515847,-0.651137114,-4.722880363,0.86849463,8.183547974,-12.28929043,-237.0056,28.21652412,-0.440917969,0.012207031,-1.664550781, 
364,322571747,0.726472437,0.187178344,0.105695449,-0.652710199,-4.887424469,0.885745525,8.321063995,-13.18451405,-229.4924164,28.85472488,-0.475097656,0.012207031,-1.6640625, 
365,322580080,0.729520559,0.175789118,0.094471432,-0.65419668,-4.869330883,1.22542727,8.69787693,-17.03192711,-225.5849304,25.49186325,-0.509765625,0.021484375,-1.664550781, 
366,322588413,0.732067049,0.163623065,0.083038278,-0.656056523,-4.190131664,1.119698524,8.787330627,-22.46373367,-232.6103973,15.99494267,-0.542480469,0.022949219,-1.661621094, 
367,322596746,0.734012246,0.152064905,0.072174497,-0.657946229,-3.467550039,0.865874171,8.733721733,-18.83640289,-223.1844788,10.33360004,-0.575195313,0.023925781,-1.658691406, 
368,322605079,0.735710263,0.1414648,0.061819363,-0.659466803,-3.173465967,0.774830818,8.934886932,-14.87266159,-205.9571533,11.06000423,-0.606445313,0.024414063,-1.65625, 
369,322613412,0.737195492,0.131810009,0.052190371,-0.660640121,-3.24913311,0.846605599,9.179265022,-10.48361969,-191.631485,12.60433006,-0.635742188,0.026855469,-1.6484375, 
370,322621745,0.738216817,0.121441185,0.041956536,-0.662214398,-2.95514679,1.066086411,9.096329689,-12.38502121,-202.2012177,4.339797974,-0.663085938,0.026855469,-1.647949219, 
371,322630078,0.738535464,0.110931456,0.031291094,-0.664289474,-1.932248235,0.787934542,9.01044178,-7.084727287,-210.772522,-6.011755466,-0.692871094,0.03125,-1.643066406, 
372,322638411,0.738649368,0.10106533,0.020523526,-0.666154444,-1.400780082,0.625012279,9.039401054,-0.725050151,-203.051651,-5.806434155,-0.724609375,0.030273438,-1.62890625, 
373,322646744,0.739076555,0.092421293,0.01089933,-0.66716224,-1.472070932,0.646007121,9.142489433,3.02986908,-182.5603943,-3.008364916,-0.751464844,0.030761719,-1.624023438, 
374,322655077,0.738992035,0.084342539,0.001675411,-0.66841197,-1.633039236,0.731171489,9.165476799,3.30042696,-170.1207123,-3.051258087,-0.778808594,0.025878906,-1.615234375, 
375,322663410,0.738975525,0.076760933,-0.006967912,-0.669309139,-1.288843989,0.751790941,9.191848755,4.978396416,-162.4830322,-6.063222885,-0.797851563,0.026367188,-1.613769531, 
376,322671743,0.738524139,0.069488734,-0.015644494,-0.670454323,-0.856771171,0.759115398,9.304099083,6.820860863,-157.0466461,-6.042235374,-0.821777344,0.026367188,-1.602050781, 
377,322680076,0.738445878,0.062618241,-0.023855604,-0.670975149,-0.737414241,0.740029991,9.488929749,8.123001099,-151.0892639,-2.626972437,-0.84375,0.025878906,-1.595703125, 
378,322688409,0.738070488,0.055534001,-0.032399204,-0.67165345,-0.84381032,0.775961578,9.501059532,7.493907928,-153.5276794,-0.791662931,-0.863769531,0.023925781,-1.5859375, 
379,322696742,0.737749577,0.048203155,-0.041226577,-0.672088265,-0.553256452,0.727522373,9.458936691,9.174128532,-161.4840393,-2.33901763,-0.883789063,0.020507813,-1.578613281, 
380,322705075,0.737224579,0.04043854,-0.050641675,-0.672532797,-0.180416301,1.164558887,9.54945755,8.84590435,-168.5779572,1.144280553,-0.910644531,0.01953125,-1.56640625, 
381,322713408,0.736689389,0.032170013,-0.060109403,-0.672785878,-0.073567308,1.032632113,9.43452549,5.871813774,-176.0723572,3.533349514,-0.930175781,0.017089844,-1.554199219, 
382,322721741,0.735985041,0.023783015,-0.069889069,-0.67296052,0.157666802,0.877150178,9.284296036,6.194437504,-178.0433197,2.824176073,-0.952148438,0.019042969,-1.543945313, 
383,322730074,0.734927595,0.015028563,-0.07975655,-0.673271596,0.153116435,0.984073341,9.390966415,4.775546551,-185.1109467,-1.337359428,-0.973144531,0.015625,-1.531738281, 
384,322738407,0.733376741,0.005519128,-0.090559788,-0.673741341,0.737052083,0.848907709,9.294846535,4.238089085,-199.7450256,-6.592030048,-1.001953125,0.014648438,-1.515136719, 
385,322746740,0.731577814,-0.004025009,-0.101454623,-0.674154878,1.230864763,0.924891114,9.209858894,6.339896679,-203.7042542,-8.244960785,-1.026855469,0.014648438,-1.5, 
386,322755073,0.729786158,-0.01260282,-0.111720853,-0.674367905,1.451996922,0.820762634,9.337880135,9.004589081,-186.0188446,-7.50164032,-1.048339844,0.010742188,-1.486328125, 
387,322763406,0.72787267,-0.020484263,-0.12090604,-0.674657941,1.19098568,0.843658268,9.393997192,7.356561184,-171.2689056,-10.33405018,-1.069824219,0.010253906,-1.47265625, 
388,322771739,0.72553879,-0.028626032,-0.130712181,-0.675046742,1.407918334,0.807454526,9.292308807,8.704717636,-178.1953888,-14.91669083,-1.091796875,0.010742188,-1.447265625, 
389,322780072,0.722956181,-0.037026487,-0.140754402,-0.675390005,2.096346378,1.099855661,9.097657204,9.854470253,-185.7975922,-16.51805115,-1.110351563,0.004394531,-1.436523438, 
390,322788405,0.720366061,-0.04535725,-0.1506861,-0.675506711,2.174278498,1.152646303,8.966277122,8.403829575,-181.8068848,-14.29477882,-1.129882813,0.001464844,-1.418945313, 
391,322796738,0.717750669,-0.053439215,-0.160149887,-0.675522208,2.474531889,1.128225446,8.839715958,8.279866219,-177.3545532,-13.94331837,-1.15234375,-0.002441406,-1.401367188, 
392,322805071,0.715348959,-0.060941782,-0.169132918,-0.675245225,2.972332239,1.256944656,8.733581543,8.775994301,-164.5991516,-9.798782349,-1.170410156,-0.004882813,-1.383300781, 
393,322813404,0.713174164,-0.067854479,-0.177303612,-0.674790442,3.08625865,1.089918613,8.724179268,9.186519623,-153.1133575,-6.889322758,-1.185546875,-0.0078125,-1.369628906, 
394,322821737,0.710983455,-0.074543968,-0.185677245,-0.67414397,3.576325893,1.198403239,8.703469276,12.16768551,-150.8936005,-5.634502411,-1.198730469,-0.01171875,-1.352539063, 
395,322830070,0.708999097,-0.08116141,-0.193642974,-0.673227787,3.772277832,1.228459954,8.389817238,11.51813793,-148.3072205,-1.159194589,-1.21484375,-0.01171875,-1.3359375, 
396,322838403,0.706899881,-0.0877764,-0.201909095,-0.672176182,3.951682568,0.915828645,8.342949867,13.03143597,-149.3572845,-0.935194194,-1.23046875,-0.013183594,-1.321777344, 
397,322846736,0.70483321,-0.09409669,-0.209889412,-0.671045899,4.11622858,0.956305265,8.458229065,15.01559258,-146.1088562,-0.704840243,-1.243652344,-0.013671875,-1.303710938, 
398,322855069,0.702820301,-0.100277819,-0.218049407,-0.669658661,3.852955103,1.144360304,8.621380806,17.33497429,-144.5000763,2.011664152,-1.256347656,-0.014648438,-1.287597656, 
399,322863402,0.700815201,-0.106601171,-0.226671934,-0.667917848,4.011061192,1.145803332,8.569120407,22.79078293,-152.931366,4.860288143,-1.271484375,-0.017089844,-1.270996094, 
400,322871735,0.698847175,-0.112538353,-0.235286564,-0.666024089,4.399855614,1.250060201,8.507476807,25.47474098,-147.2355347,5.912790775,-1.283691406,-0.01953125,-1.251464844, 
401,322880068,0.69709444,-0.118009515,-0.242395595,-0.66436249,4.451726437,1.31806612,8.29532814,17.22876549,-129.629425,6.003772259,-1.295898438,-0.017578125,-1.237304688, 
402,322888401,0.69519341,-0.123457491,-0.24898915,-0.662924528,4.450763702,1.133849025,8.07572937,10.27645111,-122.4267731,3.73933053,-1.305664063,-0.0234375,-1.21875, 
403,322896734,0.692944884,-0.129393876,-0.255820006,-0.661544323,4.874346256,1.036135554,7.98871851,8.440724373,-132.4116974,0.771499872,-1.314453125,-0.019042969,-1.20703125, 
404,322905067,0.690309823,-0.135550544,-0.262824535,-0.660319567,5.166669369,0.984648943,7.908527374,5.234724045,-134.9868011,-3.243992329,-1.326171875,-0.020996094,-1.1875, 
405,322913400,0.68774277,-0.14140664,-0.2690323,-0.659269154,5.404816628,1.231335044,7.884240627,1.798643947,-126.2761002,-4.453557968,-1.3359375,-0.023925781,-1.171875, 
406,322921733,0.685344875,-0.146877646,-0.274418265,-0.658349514,5.418151855,1.306674719,7.853948116,-3.610545635,-111.9850845,-3.412109852,-1.344726563,-0.0234375,-1.157226563, 
407,322930066,0.683120131,-0.152329624,-0.279066592,-0.657468438,5.356208801,1.447920918,7.774300098,-8.459622383,-106.2329559,-1.420093179,-1.350097656,-0.024902344,-1.145996094, 
408,322938399,0.680781007,-0.158182621,-0.284090012,-0.656360269,5.571784973,1.370044708,7.412980556,-9.644892693,-112.1998901,1.064757228,-1.361328125,-0.024414063,-1.129394531, 
409,322946732,0.678596079,-0.163962945,-0.288773477,-0.655159175,5.625556946,1.305392265,7.471934795,-9.919397354,-110.0373688,3.109742165,-1.365234375,-0.0234375,-1.116699219, 
410,322955065,0.676540136,-0.169346556,-0.29300195,-0.654037535,5.538868427,1.266426086,7.619706631,-11.75196743,-99.45386505,3.653147221,-1.373046875,-0.020996094,-1.099609375, 
411,322963398,0.674666584,-0.17436868,-0.296616286,-0.653023541,5.770956516,1.302163124,7.515138626,-12.54102707,-91.54386139,3.556319952,-1.37890625,-0.020019531,-1.092285156, 
412,322971731,0.672869384,-0.178999066,-0.300182104,-0.651994884,6.012804985,1.197798014,7.223178387,-10.47459888,-85.26689911,3.608620882,-1.380371094,-0.01953125,-1.078613281, 
413,322980064,0.671168268,-0.183240533,-0.303482771,-0.651040971,6.205141544,1.125555158,6.918590546,-7.969121456,-80.77920532,2.081283808,-1.387695313,-0.020019531,-1.06640625, 
414,322988397,0.669787705,-0.186903462,-0.306420803,-0.65004462,6.638786793,1.454866767,6.55769825,-6.244648457,-68.99279785,4.586516857,-1.395019531,-0.018066406,-1.057128906, 
415,322996730,0.669096768,-0.189789489,-0.308167219,-0.649093688,6.497014523,1.356890559,6.479673386,-6.821343422,-50.03714371,9.352074623,-1.396484375,-0.014648438,-1.052246094, 
416,323005063,0.668808758,-0.191860005,-0.309301555,-0.648241699,6.532310009,1.244583964,6.540685177,-5.48345089,-33.17736053,10.95023918,-1.395996094,-0.013671875,-1.046386719, 
417,323013396,0.668938339,-0.193049774,-0.309620857,-0.647602081,6.730757713,1.031511545,6.742248535,-3.153472185,-17.38443756,10.35177898,-1.400878906,-0.012207031,-1.038574219, 
418,323021729,0.669181108,-0.193713933,-0.309758037,-0.647087276,6.728528976,0.977477193,6.79229784,-1.462060809,-8.328725815,9.230308533,-1.401367188,-0.008789063,-1.0390625, 
419,323030062,0.669692934,-0.193827569,-0.30942893,-0.646680892,6.718770981,0.982064962,6.614875317,0.990694642,0.485709965,8.746839523,-1.401367188,-0.009765625,-1.0390625, 
420,323038395,0.670548201,-0.192953914,-0.30841738,-0.646539092,6.702322483,0.996197343,6.592930317,2.526473522,19.5199852,7.760052204,-1.401367188,-0.007324219,-1.043457031, 
421,323046728,0.671935081,-0.190964535,-0.306234241,-0.646727622,6.646719933,0.973565817,6.628242493,3.693283558,41.64600372,7.036586761,-1.39453125,-0.006347656,-1.049804688, 
422,323055061,0.673689902,-0.187895417,-0.303331882,-0.647168636,6.633704185,0.950176597,6.687942028,5.89496851,61.83065033,6.100318909,-1.397949219,-0.007324219,-1.055175781, 
423,323063394,0.675916672,-0.1837347,-0.299366713,-0.647887409,6.527897835,0.957883537,6.870044231,7.907355309,82.43209076,5.157188416,-1.389160156,-0.004394531,-1.064941406, 
424,323071727,0.678435504,-0.178652018,-0.294777066,-0.648780107,6.370633125,0.923180997,6.979356766,9.642728806,99.73451233,4.688508987,-1.385742188,-0.006347656,-1.078125, 
425,323080060,0.681263804,-0.172697246,-0.289236993,-0.64992106,6.251253605,0.869107068,7.138445854,10.37320995,116.6772003,3.203136683,-1.375,-0.004882813,-1.093261719, 
426,323088393,0.684294641,-0.165907696,-0.283024222,-0.651239693,6.020540237,1.029645085,7.410802364,10.6387434,133.2338867,2.355944633,-1.370117188,-0.005859375,-1.112304688, 
427,323096726,0.687389851,-0.15885292,-0.27614519,-0.65269053,5.72406435,1.09563899,7.7643466,8.158826828,140.9242859,1.489967704,-1.360839844,-0.006347656,-1.125488281, 
428,323105059,0.690282047,-0.152009144,-0.26952827,-0.654032588,5.568483353,1.255263209,7.713200569,7.132363796,137.0484619,1.612148285,-1.349609375,-0.006835938,-1.145996094, 
429,323113392,0.692994118,-0.145211145,-0.262440056,-0.655590057,5.577618122,1.179847956,7.765591621,2.669266939,139.4113617,-1.526711464,-1.340332031,-0.006347656,-1.163085938, 
430,323121725,0.695436418,-0.138438627,-0.255216122,-0.657318711,5.254398823,1.087574005,8.029716492,-1.334499478,141.3214874,-4.598169327,-1.329101563,-0.002441406,-1.182617188, 
431,323130058,0.697448552,-0.132166818,-0.248376429,-0.659095347,4.896837234,1.143416047,8.136142731,-2.237206459,130.2569122,-8.489992142,-1.321777344,-0.005371094,-1.19921875, 
432,323138391,0.699064672,-0.126299068,-0.242290556,-0.660796702,4.955346107,1.265769601,8.140927315,-1.136671782,119.3165894,-10.77522659,-1.310546875,-0.007324219,-1.214355469, 
433,323146724,0.700855196,-0.120096378,-0.235216424,-0.662610233,4.910563946,1.361412764,8.266738892,-5.546821117,131.2081757,-10.18808746,-1.296875,-0.005371094,-1.231445313, 
434,323155057,0.70300436,-0.112682216,-0.227002561,-0.664498031,4.563930511,1.120838761,8.261086464,-5.323060513,155.9398346,-9.152318001,-1.287597656,-0.007324219,-1.248046875, 
435,323163390,0.705447376,-0.10442505,-0.217382967,-0.666471541,4.087839603,1.091963887,8.59058094,-8.398423195,176.8932343,-8.199343681,-1.271484375,-0.009277344,-1.269042969, 
436,323171723,0.707722127,-0.09609329,-0.207824409,-0.668359697,3.74174428,1.177182674,8.634316444,-8.530776978,177.7468109,-8.773862839,-1.258300781,-0.007324219,-1.289550781, 
437,323180056,0.709741771,-0.087992482,-0.198699981,-0.670106053,3.673316002,1.261803865,8.453192711,-5.264217377,169.1029663,-10.02917576,-1.238769531,-0.004394531,-1.310546875, 
438,323188389,0.711687446,-0.079994559,-0.190241218,-0.671498418,3.524476528,1.291460037,8.405454636,-0.70826292,162.4023743,-7.403570175,-1.2265625,-0.008300781,-1.328613281, 
439,323196722,0.71369797,-0.071878061,-0.18148905,-0.672703981,3.098670006,1.104800224,8.606458664,-0.233914793,164.9503632,-5.262979984,-1.208007813,-0.006347656,-1.34765625, 
440,323205055,0.715711892,-0.063658528,-0.172691286,-0.673707843,2.88702774,1.147218347,8.905679703,-0.59582746,167.540329,-3.163231373,-1.190917969,-0.005371094,-1.366699219, 
441,323213388,0.717613518,-0.055667546,-0.163879961,-0.674592793,2.712902069,1.198498011,8.932939529,-1.325824142,163.8086853,-2.706669092,-1.170410156,-0.0078125,-1.375488281, 
442,323221721,0.719273567,-0.048266686,-0.155983463,-0.675266922,2.841746807,1.146396399,8.75320816,0.170427695,149.9715729,-2.007863045,-1.156738281,-0.005371094,-1.395507813, 
443,323230054,0.720758319,-0.041357014,-0.148488879,-0.675831378,2.781867027,1.002182961,8.990176201,0.625958562,139.6000061,-1.924788952,-1.145019531,-0.004882813,-1.41015625, 
444,323238387,0.722018898,-0.034977455,-0.141668588,-0.676310003,2.456259012,0.956527889,9.239592552,0.226215407,128.8658447,-2.298449755,-1.127441406,-0.004394531,-1.42578125, 
445,323246720,0.723037243,-0.029237211,-0.135344237,-0.676789761,2.007781744,1.069655538,9.189796448,-0.160731226,116.16996,-3.663954735,-1.113769531,-0.004882813,-1.435546875, 
446,323255053,0.72388351,-0.023956899,-0.129476935,-0.677240431,1.902954459,1.178794146,9.226079941,-1.957818627,108.3642044,-4.193042278,-1.099609375,-0.000488281,-1.445800781, 
447,323263386,0.724856913,-0.018439414,-0.123087242,-0.67756331,1.818006277,1.280560255,9.237052917,-2.716472387,114.6106415,-2.049982309,-1.084472656,-0.005371094,-1.458496094, 
448,323271719,0.725997508,-0.012166175,-0.115779318,-0.677772164,1.479149342,1.216452837,9.257321358,-4.974796295,132.4013519,-0.34100759,-1.072753906,-0.002929688,-1.469726563, 
449,323280052,0.727379084,-0.004920387,-0.107316613,-0.677774787,1.378608704,1.13668859,9.00083828,-4.195876598,152.0005035,2.604854345,-1.054199219,-0.002929688,-1.48046875, 
450,323288385,0.728937566,0.00350855,-0.097867273,-0.677539349,1.247223496,1.075561166,8.970143318,-2.656241894,174.486145,4.961494923,-1.035644531,0.002929688,-1.495117188, 
451,323296718,0.730744779,0.013356194,-0.086771816,-0.676981807,1.156076193,1.048108101,9.067811012,-1.901388288,203.2042847,8.586602211,-1.011230469,0.000976563,-1.509277344, 
452,323305051,0.732715607,0.024354087,-0.074455909,-0.676011205,0.864459455,1.027011633,9.010062218,-2.685929775,227.8006744,12.59762096,-0.980957031,0.004394531,-1.525390625, 
453,323313384,0.734690785,0.03613016,-0.061265662,-0.674663544,0.518621266,1.069425225,9.169471741,-1.157951832,242.6378021,15.50511837,-0.953613281,0.002929688,-1.544921875, 
454,323321717,0.736357272,0.047680214,-0.048451282,-0.673169911,-0.12054202,0.921194255,9.416708946,-1.104003191,237.8920288,14.33632469,-0.922851563,0.008300781,-1.562011719, 
455,323330050,0.737367809,0.057661869,-0.037205171,-0.671996772,-0.267780721,1.006047726,9.322432518,-0.844174206,205.5184937,7.335101604,-0.888671875,0.01171875,-1.575683594, 
456,323338383,0.737776399,0.06598945,-0.028055169,-0.671226084,-0.280502588,1.036374807,9.34314537,0.621096909,169.6687927,-0.042700015,-0.865234375,0.009765625,-1.583496094, 
457,323346716,0.7380265,0.07222154,-0.020717787,-0.670575738,-0.960610569,1.330356717,9.549509048,-1.811298728,129.5538788,-6.789191246,-0.845703125,0.011230469,-1.597167969, 
458,323355049,0.737331271,0.07569512,-0.016743302,-0.67106843,-1.12659502,1.378231287,9.411373138,-0.177878886,70.78490448,-16.46614838,-0.834472656,0.013183594,-1.598632813, 
459,323363382,0.736747324,0.077685282,-0.014505767,-0.671533942,-1.05548954,1.222544312,9.436175346,2.979362488,37.18844986,-20.73157692,-0.822753906,0.013183594,-1.599609375, 
460,323371715,0.735984921,0.080199093,-0.012596539,-0.672112882,-1.008938074,1.078407049,9.559858322,9.209999084,40.88674164,-15.57769489,-0.817382813,0.0078125,-1.604980469, 
461,323380048,0.736056268,0.083501555,-0.009484198,-0.671683729,-1.598585963,1.074473262,9.633478165,7.636472702,59.30208588,-6.35945797,-0.808105469,0.006835938,-1.610351563, 
462,323388381,0.736096382,0.087238267,-0.005771021,-0.671206832,-1.806142092,1.199052572,9.561504364,4.219246387,71.74571228,0.297894895,-0.801269531,0.007324219,-1.612304688, 
463,323396714,0.736809671,0.091521248,-0.001114242,-0.669876158,-1.624839544,1.22505188,9.339035034,2.832235098,85.02307129,6.308979988,-0.789550781,0.009765625,-1.616699219, 
464,323405047,0.737383008,0.096983939,0.004723175,-0.668459356,-1.598152637,1.134174943,9.14840126,1.558335662,110.350563,12.04038334,-0.773925781,0.010253906,-1.622558594, 
465,323413380,0.73859334,0.103730276,0.012653418,-0.666003168,-1.862135291,0.97773385,9.045438766,-2.737455368,142.2138214,17.68564224,-0.757324219,0.008789063,-1.624023438, 
466,323421713,0.739346266,0.111847304,0.021806972,-0.663612962,-1.713999033,0.750612676,8.978779793,-2.193928242,169.6790466,19.34211349,-0.734863281,0.014648438,-1.633789063, 
467,323430046,0.740418017,0.121253535,0.031954668,-0.660346806,-1.566331029,0.686632514,9.028160095,4.690065861,190.0436859,20.4325695,-0.707519531,0.01171875,-1.640625, 
468,323438379,0.740556955,0.130315572,0.041083805,-0.657955587,-2.450465679,0.97465682,9.052127838,8.77811718,178.252594,14.16535282,-0.678222656,0.017089844,-1.647949219, 
469,323446712,0.740689516,0.137289837,0.048113272,-0.655908525,-2.467401505,1.111393571,9.084439278,11.1935997,134.4080505,2.414743662,-0.657714844,0.015625,-1.650878906, 
470,323455045,0.739829361,0.142934993,0.052626558,-0.655326545,-2.477325678,1.084259987,8.972700119,18.72603989,97.62991333,-6.841275692,-0.641113281,0.010253906,-1.655761719, 
471,323463378,0.738820195,0.147894785,0.056072585,-0.65507859,-3.142646313,1.100478172,8.986116409,23.17251778,78.654953,-9.418423653,-0.62890625,0.010253906,-1.658203125, 
472,323471711,0.737909257,0.152136937,0.058942415,-0.654881954,-3.839626551,1.214210629,9.094772339,19.64848518,67.54240417,-9.027675629,-0.614746094,0.004882813,-1.658203125, 
473,323480044,0.737095416,0.155870974,0.062128726,-0.654625595,-4.019413471,1.247257829,9.165194511,12.64825535,64.83403015,-7.997012615,-0.607910156,0.0078125,-1.658203125, 
474,323488377,0.736407578,0.159664288,0.065804496,-0.654126167,-3.852938175,1.240248919,9.100121498,7.112209797,72.12974548,-6.018387318,-0.598144531,0.004394531,-1.659667969, 
475,323496710,0.73599273,0.163184956,0.070022397,-0.653285742,-3.687990665,1.214190841,8.960753441,-0.192632794,74.20339203,-0.889445841,-0.588378906,0.002441406,-1.663574219, 
476,323505043,0.735688508,0.166790336,0.074445136,-0.652227998,-3.578547716,1.196191192,8.813107491,-2.871717453,78.88085175,1.268065214,-0.576660156,0.006835938,-1.663085938, 
477,323513376,0.735383153,0.171063781,0.079802893,-0.650830567,-3.555098057,1.122815967,8.770131111,-3.621406794,93.59805298,3.922210455,-0.559570313,0.006347656,-1.666015625, 
478,323521709,0.735129774,0.176567689,0.086092122,-0.648842394,-3.554781675,0.960388064,8.75594902,-1.504201174,116.8735275,8.832790375,-0.547851563,0.0078125,-1.665039063, 
479,323530042,0.734842181,0.183786303,0.093716353,-0.646101415,-3.606189966,0.871409237,8.651346207,4.304989338,146.0067749,15.6547718,-0.527832031,0.007324219,-1.666015625, 
480,323538375,0.734387755,0.193132654,0.10264723,-0.642524838,-3.829189539,0.910362005,8.549859047,12.34952927,181.9744568,21.32919884,-0.503417969,0.009765625,-1.665039063, 
481,323546708,0.733640075,0.202631041,0.111855805,-0.6389063,-4.450993061,1.480137825,8.358052254,13.31824875,185.1176453,19.43257904,-0.471679688,0.004394531,-1.665527344, 
482,323555041,0.73283869,0.209036991,0.118684947,-0.63652575,-4.407097816,1.562308431,7.917752743,3.915733814,132.0986938,7.551500797,-0.449707031,0.001953125,-1.668945313, 
483,323563374,0.731698573,0.213704273,0.12348824,-0.635372818,-4.071396351,1.287600398,7.913467407,8.233400345,91.94895935,-3.962257624,-0.431152344,0.004394531,-1.667480469, 
484,323571707,0.730465651,0.218113706,0.127685487,-0.634462833,-4.177840233,1.206788421,7.931958675,10.49450111,84.57428741,-6.711599827,-0.419433594,0.001953125,-1.666503906, 
485,323580040,0.729144216,0.222769856,0.13260895,-0.633354008,-4.84000349,1.179718375,7.870826244,7.643627167,93.24241638,-6.374624729,-0.405273438,-0.001464844,-1.665527344, 
486,323588373,0.727766454,0.227161378,0.137628257,-0.632307172,-5.187138557,1.181007385,7.862278938,3.353159904,93.34001923,-9.119263649,-0.393554688,0.002441406,-1.666015625, 
487,323596706,0.7263726,0.231100753,0.142305136,-0.631446481,-5.102407932,1.112865686,8.000936508,3.280640602,83.90425873,-10.02856159,-0.377929688,0.000488281,-1.659179688, 
488,323605039,0.725082219,0.234829098,0.146115705,-0.630683362,-5.10579586,1.124295235,7.898244381,7.489076138,74.42800903,-8.644475937,-0.36328125,0,-1.661621094, 
489,323613372,0.723746836,0.238766789,0.149816781,-0.629869938,-5.385636806,1.191231132,7.866030693,11.63025284,73.85860443,-6.844222069,-0.354492188,-0.000488281,-1.661132813, 
490,323621705,0.722456753,0.2433469,0.153819889,-0.628632009,-5.651753426,1.205598116,7.885677338,13.3267374,85.27320862,-2.809067249,-0.34765625,-0.001953125,-1.656738281, 
491,323630038,0.72105372,0.248871148,0.158713415,-0.626860917,-5.791677475,1.227959752,7.755198479,15.30570316,102.7495117,1.472858191,-0.33203125,-0.005371094,-1.657226563, 
492,323638371,0.719510078,0.255402237,0.164247185,-0.624578059,-5.755763531,1.206676245,7.513688087,18.09249496,121.3874741,4.398226738,-0.317871094,-0.006835938,-1.653808594, 
493,323646704,0.717721999,0.262434393,0.170476258,-0.622045994,-5.980676651,1.39975512,7.412314892,18.38649368,132.4165802,4.443550587,-0.296386719,-0.006347656,-1.651367188, 
494,323655037,0.716030777,0.267787516,0.175847232,-0.620215774,-6.173216343,1.727051735,7.217707157,9.439788818,108.4022446,-3.481689692,-0.274414063,-0.009765625,-1.647460938, 
495,323663370,0.714417458,0.270943791,0.179999784,-0.619513988,-5.884254456,1.635254979,7.084156513,1.626588345,71.71499634,-13.7344799,-0.266113281,-0.010742188,-1.646484375, 
496,323671703,0.712984681,0.272875786,0.182964802,-0.619447947,-5.757987499,1.611455798,7.109829903,-0.361917168,48.4068222,-18.06754303,-0.255371094,-0.008300781,-1.643066406, 
497,323680036,0.711764693,0.273864031,0.185440719,-0.619678438,-5.935874939,1.573168993,7.00267601,-4.556073666,32.2951889,-18.68559647,-0.252441406,-0.006347656,-1.638671875, 
498,323688369,0.710814178,0.274057448,0.187410802,-0.6200912,-6.113617897,1.449393034,7.009335041,-9.517526627,20.82274818,-19.30941963,-0.247070313,-0.00390625,-1.639648438, 
499,323696702,0.70993638,0.27407214,0.189382553,-0.620491147,-6.238232136,1.33956337,7.141765594,-10.65892315,17.54304695,-18.0346756,-0.240234375,-0.004394531,-1.640625, 
500,323705035,0.709249794,0.274246454,0.191121444,-0.620666087,-6.309857845,1.253136635,7.275808334,-9.343322754,18.61172295,-13.91129017,-0.243652344,-0.000488281,-1.637695313, 
501,323713368,0.708689928,0.274531126,0.192810878,-0.620657206,-6.439826012,1.183121443,7.252914906,-7.889507294,17.7815609,-9.568469048,-0.239257813,-0.000976563,-1.637207031, 
502,323721701,0.708420157,0.274656624,0.194207072,-0.620474398,-6.398276806,1.20746088,7.204376698,-9.408533096,15.09736538,-5.703561783,-0.237304688,0.000488281,-1.633300781, 
503,323730034,0.708274961,0.274703383,0.195692182,-0.620152831,-6.265595436,1.224973083,7.126717091,-10.8602457,13.81824207,-2.847727299,-0.233886719,0.004394531,-1.635253906, 
504,323738367,0.708124578,0.27500847,0.197050869,-0.619759083,-6.191577435,1.167458177,6.998933315,-8.350819588,16.73655319,-2.003763914,-0.23046875,0.004394531,-1.633789063, 
505,323746700,0.707836151,0.275761336,0.198520824,-0.61928457,-6.145395756,1.189581275,7.037603378,-3.730753183,20.63678169,-0.614780188,-0.229492188,0.006347656,-1.632324219, 
506,323755033,0.707672954,0.276372015,0.199304387,-0.618947148,-6.218099594,1.415141225,7.116122246,-0.272650748,13.55948544,0.346304476,-0.225097656,0.004394531,-1.633300781, 
507,323763366,0.707627833,0.276011676,0.199074849,-0.619233191,-6.305056095,1.433590651,7.073791981,1.061044216,-8.94565773,-2.545863152,-0.227539063,0.009277344,-1.6328125, 
508,323771699,0.707845092,0.274504125,0.197385952,-0.620194912,-6.331587315,1.380811334,7.068451405,2.281334639,-34.51372528,-5.468428135,-0.228515625,0.007324219,-1.632324219, 
509,323780032,0.708243906,0.272097737,0.19498013,-0.62155956,-6.387610912,1.301570892,7.157725811,0.947985232,-52.86111069,-6.620002747,-0.233398438,0.008300781,-1.634277344, 
510,323788365,0.708830953,0.268864751,0.19173345,-0.623304725,-6.285869122,1.255321383,7.143994808,-0.489912659,-68.35987091,-8.742238045,-0.2421875,0.004882813,-1.636230469, 
511,323796698,0.709556818,0.264756531,0.187983945,-0.625376165,-6.267458916,1.193145156,7.16575098,-3.46223402,-84.03752136,-10.25627327,-0.25390625,0.006347656,-1.639648438, 
512,323805031,0.710423112,0.260093093,0.183777332,-0.627596021,-6.079590797,1.005146503,7.266302109,-5.975090981,-92.47847748,-11.18975258,-0.267089844,0.009277344,-1.643066406, 
513,323813364,0.711266637,0.255141556,0.179417089,-0.629930437,-5.976821899,1.021490097,7.367339134,-6.170612335,-98.53721619,-11.79549503,-0.282226563,0.008789063,-1.646972656, 
514,323821697,0.712294996,0.249545828,0.174269274,-0.632450104,-5.634250641,1.091443896,7.392255783,-6.760043144,-111.210228,-11.72428989,-0.297363281,0.010253906,-1.6484375, 
515,323830030,0.713588476,0.243641451,0.168767557,-0.634781778,-5.28364563,1.061196923,7.463562012,-7.107412338,-119.0862198,-6.239053249,-0.312011719,0.013671875,-1.649902344, 
516,323838363,0.715452671,0.237263069,0.162705034,-0.636679769,-5.59833765,1.257140517,7.697795391,-10.73780632,-126.868782,2.917477369,-0.329101563,0.014160156,-1.655273438, 
517,323846696,0.717680693,0.229195148,0.155925512,-0.63882041,-5.670756817,1.352174997,7.614379883,-20.73918915,-152.0506744,3.082071304,-0.352050781,0.015136719,-1.65625, 
518,323855029,0.720141351,0.219573036,0.147483677,-0.641430318,-5.122572422,1.217771173,7.806680202,-22.18800354,-182.3647919,1.595071316,-0.373535156,0.017578125,-1.658691406, 
519,323863362,0.722735941,0.208822355,0.137770265,-0.644255817,-4.695258617,1.241647363,7.882224083,-21.11038589,-207.593689,2.928383112,-0.404296875,0.021972656,-1.663085938, 
520,323871695,0.725308478,0.197382852,0.127104923,-0.647157013,-4.515293598,1.020382881,8.037085533,-20.31847,-221.5827179,2.672526598,-0.4375,0.0234375,-1.666992188, 
521,323880028,0.727530181,0.185470074,0.115934476,-0.65027684,-4.644059658,1.075033903,8.407751083,-18.1819458,-232.5739594,-1.436220646,-0.467285156,0.027832031,-1.664550781, 
522,323888361,0.729386032,0.17243351,0.103573285,-0.653862,-4.211130619,0.977208376,8.542467117,-18.1237545,-253.3868256,-8.769007683,-0.506835938,0.02734375,-1.666503906, 
523,323896694,0.730941474,0.159667894,0.09094394,-0.657236576,-3.802802324,0.650997639,8.871414185,-11.52282619,-254.4812469,-7.769818306,-0.54296875,0.034179688,-1.663085938, 
524,323905027,0.732289374,0.148294061,0.078905538,-0.659950972,-3.849589348,0.648008645,9.22495842,-4.302359104,-232.4870453,-3.131963253,-0.579101563,0.033691406,-1.659179688, 
525,323913360,0.733515441,0.138381898,0.068336084,-0.661918342,-3.605947256,0.7797153,9.323609352,-2.374540091,-204.5402069,2.366150856,-0.608886719,0.03125,-1.653808594, 
526,323921693,0.734759688,0.129528359,0.058816057,-0.663243234,-3.287388802,0.735972106,9.264677048,-2.985540867,-181.344162,7.51984024,-0.637695313,0.034179688,-1.650390625, 
527,323930026,0.735938489,0.120808505,0.04953124,-0.664339125,-3.061867476,0.88294369,9.33118248,-2.713328362,-179.081665,9.363266945,-0.665527344,0.034667969,-1.647949219, 
528,323938359,0.736833811,0.11053469,0.038735192,-0.665850997,-2.676250219,0.923897803,9.067350388,-5.012088776,-207.282959,3.580698013,-0.688964844,0.035644531,-1.639648438, 
529,323946692,0.737297356,0.09974581,0.026942989,-0.667621017,-1.821432114,0.63989085,9.048873901,0.844948471,-224.0743103,-1.379246712,-0.72265625,0.033691406,-1.634765625, 
530,323955025,0.737526,0.089512885,0.015037389,-0.66919136,-1.732668877,0.671705127,9.162507057,6.612540722,-217.9455414,-1.520204544,-0.751953125,0.031738281,-1.624023438, 
531,323963358,0.738152921,0.080008708,0.003862433,-0.669861436,-1.39156723,0.698602319,9.294984818,9.394885063,-205.9355011,-1.899917483,-0.782714844,0.029785156,-1.614746094, 
532,323971691,0.737997949,0.070886038,-0.007137453,-0.671031773,-1.328437328,0.791607141,9.320425987,9.754546165,-198.0220795,-1.924476862,-0.812988281,0.028320313,-1.60546875, 
533,323980024,0.738093197,0.061410796,-0.018131278,-0.671653628,-0.945153058,0.709455252,9.104127884,7.887257576,-203.6240845,-4.865038395,-0.837402344,0.025878906,-1.596191406, 
534,323988357,0.737521648,0.052195586,-0.029190488,-0.672670424,-0.333056271,0.774797142,9.115819931,9.641624451,-199.4205933,-4.223833084,-0.8671875,0.021484375,-1.583984375, 
535,323996690,0.737416923,0.043587517,-0.039192446,-0.67288965,-0.454626828,0.823798656,9.23534584,7.330183029,-185.1083069,-1.857574821,-0.89453125,0.020507813,-1.5703125, 
536,324005023,0.736670196,0.034631096,-0.049460046,-0.673551381,-0.208564296,0.764168024,9.216080666,5.080371857,-188.8577118,-2.922573805,-0.918945313,0.021484375,-1.560546875, 
537,324013356,0.7362293,0.0258529,-0.059506573,-0.673615098,0.183213368,0.737480998,9.341948509,5.990342617,-187.1210632,-2.151764393,-0.944824219,0.018066406,-1.550292969, 
538,324021689,0.735332847,0.017353389,-0.069401309,-0.673920095,0.297917545,0.829063356,9.541838646,6.484059334,-180.8188629,-1.220604777,-0.967285156,0.018554688,-1.533203125, 
539,324030022,0.734582663,0.009342172,-0.078764871,-0.673867464,0.583136499,0.690553367,9.570095062,7.437430859,-173.1785126,-3.232141018,-0.992675781,0.015625,-1.525390625, 
540,324038355,0.733266175,0.001531104,-0.088131398,-0.67420435,0.815457821,0.712522984,9.587375641,8.510098457,-169.5415039,-6.257127285,-1.010742188,0.014160156,-1.51171875, 
541,324046688,0.731720328,-0.006677425,-0.097670853,-0.674537897,1.252707243,0.820131183,9.431951523,7.357162476,-177.0118103,-7.873445034,-1.033203125,0.01171875,-1.496582031, 
542,324055021,0.730000079,-0.015308874,-0.107772022,-0.674722791,1.492803454,0.821856678,9.421655655,7.25761652,-185.0761719,-7.482273579,-1.052246094,0.011230469,-1.481445313, 
543,324063354,0.728024185,-0.024516918,-0.11834906,-0.674813449,1.684632421,0.81194061,9.241299629,7.222323895,-197.3496857,-8.216331482,-1.078125,0.009277344,-1.462402344, 
544,324071687,0.725996494,-0.033622228,-0.129259095,-0.674604297,2.235587597,0.941086411,9.002527237,10.56212616,-198.1737061,-5.911919117,-1.100097656,0.004394531,-1.447265625, 
545,324080020,0.723975003,-0.042543799,-0.139685407,-0.674194515,2.048202276,0.937458098,9.135598183,9.524570465,-193.4431152,-4.0855546,-1.123535156,0.001953125,-1.424316406, 
546,324088353,0.721642792,-0.051419195,-0.150415719,-0.673767805,2.200562954,0.889653444,9.060699463,11.40067768,-194.9297028,-6.933571339,-1.143066406,-0.001464844,-1.409667969, 
547,324096686,0.719077408,-0.060065441,-0.161084399,-0.673328817,2.572756529,0.873281598,9.078583717,14.20962524,-194.3807526,-9.598922729,-1.163085938,-0.002441406,-1.387695313, 
548,324105019,0.716548681,-0.06862469,-0.171936601,-0.672522545,3.23148942,1.400195122,9.016901016,16.37102699,-193.9205933,-5.77148962,-1.185058594,-0.002441406,-1.368652344, 
549,324113352,0.714858711,-0.076599211,-0.181481391,-0.670950413,3.439322948,1.436505079,8.713850975,13.88215733,-176.0601349,9.125360489,-1.205566406,-0.01171875,-1.352050781, 
550,324121685,0.713305593,-0.084364973,-0.190428033,-0.66918999,3.13693285,1.132461786,8.805807114,9.792935371,-166.4219971,12.60739326,-1.217773438,-0.008300781,-1.329101563, 
551,324130018,0.711505592,-0.092501871,-0.199791819,-0.667298019,3.786886215,1.103450537,8.337772369,11.24033737,-176.3884888,11.81119156,-1.235839844,-0.008789063,-1.313476563, 
552,324138351,0.709653139,-0.100572087,-0.209451333,-0.665137589,4.283723354,1.030068636,8.123856544,14.08913517,-177.4995117,13.69912148,-1.25390625,-0.005371094,-1.29296875, 
553,324146684,0.707780898,-0.10808143,-0.218446732,-0.663057923,4.089396477,0.894971967,8.312665939,14.38650322,-167.4803772,11.68249512,-1.26953125,-0.011230469,-1.270019531, 
554,324155017,0.705459356,-0.115224466,-0.227328584,-0.661341369,4.20284605,0.877817988,8.254751205,14.00294876,-162.2003021,3.46979785,-1.283691406,-0.01171875,-1.252929688, 
555,324163350,0.702910185,-0.121930569,-0.236103818,-0.659776866,4.586248875,0.932656169,8.016530037,17.57574463,-159.2705231,-1.669496655,-1.297851563,-0.015136719,-1.233886719, 
556,324171683,0.700174272,-0.128192782,-0.244846597,-0.658310831,4.849582672,0.884365261,8.109847069,19.80059242,-153.7654572,-5.304179192,-1.309570313,-0.013671875,-1.215820313, 
557,324180016,0.697122514,-0.134489611,-0.253455013,-0.65703398,4.870312691,0.852812886,8.206825256,18.1882515,-155.0989075,-10.07821369,-1.317871094,-0.014648438,-1.197265625, 
558,324188349,0.693796277,-0.140598267,-0.261869878,-0.655975163,5.173111916,1.047172546,7.919703484,15.84832382,-150.5162048,-14.49874687,-1.335449219,-0.019042969,-1.174804688, 
559,324196682,0.690648258,-0.146184415,-0.269256532,-0.655084908,5.506232262,1.296831846,7.62715435,12.42315197,-136.5830688,-14.88729572,-1.340820313,-0.022949219,-1.159179688, 
560,324205015,0.6876297,-0.151501834,-0.276240408,-0.654143751,5.638823032,1.332146406,7.533833981,10.67167473,-128.404541,-12.9281292,-1.350585938,-0.026367188,-1.14453125, 
561,324213348,0.684856594,-0.156745732,-0.282823026,-0.653003633,5.678462029,1.39416492,7.544230461,10.133811,-124.949791,-8.814620972,-1.360351563,-0.028320313,-1.132324219, 
562,324221681,0.682246685,-0.161983028,-0.289194733,-0.65166539,5.518582344,1.447672963,7.641043186,8.31649971,-121.1810684,-4.520920277,-1.368164063,-0.027832031,-1.114257813, 
563,324230014,0.679877937,-0.167216122,-0.295106351,-0.650167048,5.804546833,1.534925461,7.295677662,6.488254547,-117.7014923,-0.410447538,-1.375976563,-0.030273438,-1.095703125, 
564,324238347,0.677820027,-0.172132269,-0.300610036,-0.648509264,5.981240749,1.478993177,7.144295216,6.087145329,-108.6835175,4.072462559,-1.3828125,-0.034667969,-1.081054688, 
565,324246680,0.675903797,-0.177116185,-0.305836886,-0.646720946,6.074369431,1.403758287,7.002309799,4.907085419,-107.8948593,6.910651207,-1.387695313,-0.034667969,-1.063476563, 
566,324255013,0.674077868,-0.182120979,-0.311153293,-0.644697607,6.493895054,1.46194768,6.917781353,5.675314903,-107.6443863,10.34568214,-1.396484375,-0.033691406,-1.051269531, 
567,324263346,0.672832072,-0.186705858,-0.31540671,-0.642616928,6.55429554,1.429226995,6.62925148,2.849132061,-93.16326141,16.28861618,-1.400390625,-0.030761719,-1.037109375, 
568,324271679,0.671768725,-0.190838039,-0.31885919,-0.640809238,6.34599638,1.31068182,6.721498966,-1.759451747,-78.83035278,16.06445503,-1.40625,-0.027832031,-1.02734375, 
569,324280012,0.670770645,-0.194787174,-0.322015017,-0.639086187,6.570255756,1.270398378,6.592021942,-1.914340854,-75.34809113,15.22196484,-1.408691406,-0.025390625,-1.017578125, 
570,324288345,0.669712186,-0.198648304,-0.32537365,-0.637304068,6.587030888,1.215942025,6.496594429,-0.185909092,-75.49425507,14.9174881,-1.413085938,-0.024902344,-1.005859375, 
571,324296678,0.668694794,-0.202313349,-0.32860744,-0.635558188,6.538869858,1.117957711,6.333716869,1.417460203,-73.69023132,13.77794933,-1.416015625,-0.022460938,-0.998535156, 
572,324305011,0.6676355,-0.205641404,-0.331749856,-0.633969188,6.654651165,1.099175572,6.242822647,1.952055931,-68.31308746,11.32854462,-1.41796875,-0.021972656,-0.988769531, 
573,324313344,0.666633487,-0.208523348,-0.334388703,-0.632694364,6.810603142,1.026278257,6.338795185,1.308520317,-59.95963669,7.691198826,-1.425292969,-0.017578125,-0.978027344, 
574,324321677,0.665680289,-0.210860401,-0.33664158,-0.631727934,7.151974201,1.186866999,6.425220966,0.747642696,-49.26570892,4.532461643,-1.423828125,-0.020996094,-0.970703125, 
575,324330010,0.665237367,-0.212544098,-0.337927461,-0.630943179,7.332542896,1.262597203,6.360456467,-0.12594533,-33.11926651,6.419714928,-1.428222656,-0.016601563,-0.96484375, 
576,324338343,0.665366232,-0.213365987,-0.338166356,-0.630401671,7.356911659,1.222228408,6.30668354,-0.799753368,-12.64206123,8.211681366,-1.430175781,-0.015136719,-0.96484375, 
577,324346676,0.665976584,-0.213272035,-0.337417126,-0.630190432,7.389764309,1.117762923,6.218101501,-1.990200996,8.752321243,8.665975571,-1.427246094,-0.017578125,-0.966796875, 
578,324355009,0.667053461,-0.212250575,-0.33562395,-0.630354047,7.415732384,1.001660109,6.151926517,-2.920972824,29.62151718,8.034154892,-1.426269531,-0.012695313,-0.969726563, 
579,324363342,0.668635547,-0.210369319,-0.332831919,-0.630788684,7.307072639,0.996850491,6.222878933,-2.577438116,48.1943512,8.218306541,-1.423339844,-0.01171875,-0.974609375, 
580,324371675,0.670510113,-0.207665622,-0.329471469,-0.63145864,7.216951847,0.919930339,6.419581413,-1.063890934,63.73721695,7.128095627,-1.423828125,-0.013183594,-0.983886719, 
581,324380008,0.672651172,-0.20408535,-0.325442433,-0.632437408,7.219512463,0.951667964,6.54892683,1.472992897,78.50222015,3.884381056,-1.418457031,-0.01171875,-0.993164063, 
582,324388341,0.674931884,-0.199871898,-0.321024656,-0.633609891,6.857069969,1.119138837,6.536903381,2.578052759,89.87210083,2.211971521,-1.415039063,-0.01171875,-1.005859375, 
583,324396674,0.677492619,-0.195221081,-0.315860569,-0.634921074,6.813681126,1.263897419,6.303553104,1.209476709,101.1777191,2.853054523,-1.406738281,-0.0078125,-1.016113281, 
584,324405007,0.680279076,-0.189809874,-0.309844345,-0.636544824,6.596533775,0.995233834,6.41562748,-0.813415647,118.6233673,1.528663754,-1.402832031,-0.008789063,-1.033691406, 
585,324413340,0.683242142,-0.183584124,-0.302924842,-0.638524771,6.551214218,1.047346711,6.858006477,-1.229118705,134.8889313,-1.968331814,-1.396972656,-0.008789063,-1.053222656, 
586,324421673,0.686212122,-0.176782757,-0.295536995,-0.640717685,6.460688114,1.019152641,7.228269577,-1.729300618,145.9058533,-4.523532867,-1.387207031,-0.0078125,-1.067871094, 
587,324430006,0.689051926,-0.169920817,-0.287559927,-0.6431517,5.829593658,1.172689676,7.607845783,-6.693827152,151.1111145,-7.322388172,-1.375976563,-0.01171875,-1.090332031, 
588,324438339,0.691420555,-0.163363874,-0.280155897,-0.645571828,5.593697548,1.267848849,7.247201443,-6.51107645,142.0317841,-10.92963696,-1.368652344,-0.0078125,-1.109375, 
589,324446672,0.693697155,-0.156802192,-0.273301691,-0.647690952,6.023298264,1.502516508,7.179742813,0.342813641,134.8869324,-10.65894699,-1.360351563,-0.010253906,-1.128417969, 
590,324455005,0.696408033,-0.149677798,-0.265334159,-0.649777114,5.844866753,1.366948366,7.316111565,-4.117572784,153.0085754,-5.668982506,-1.350097656,-0.009765625,-1.146972656, 
591,324463338,0.699288249,-0.141676471,-0.256009251,-0.652213991,5.230525017,0.966571748,7.778303146,-7.80338192,174.2944641,-8.387376785,-1.340820313,-0.012207031,-1.171386719, 
592,324471671,0.702176571,-0.132883936,-0.245765939,-0.654896319,5.166696548,0.9843961,8.145267487,-10.25450516,191.6183167,-11.20351791,-1.323242188,-0.010742188,-1.190429688, 
593,324480004,0.705138505,-0.123426668,-0.234544605,-0.657673538,4.797809124,0.99805975,8.399785042,-11.83642769,206.6193695,-12.33264542,-1.3046875,-0.010742188,-1.215820313, 
594,324488337,0.708030462,-0.11364162,-0.223029569,-0.660330653,4.558133602,1.166695595,8.315283775,-12.03540993,212.8563385,-11.94298935,-1.290527344,-0.008789063,-1.240722656, 
595,324496670,0.711031854,-0.103593446,-0.211114392,-0.66267103,4.320162296,1.251258135,8.120040894,-10.94224739,218.1401978,-8.407049179,-1.274902344,-0.010253906,-1.268066406, 
596,324505003,0.713978291,-0.093388364,-0.198940903,-0.664782941,3.841130495,1.15754509,8.232260704,-12.19943905,222.4518585,-6.40040493,-1.256835938,-0.008300781,-1.292480469, 
597,324513336,0.716758907,-0.083411977,-0.187137023,-0.666542649,3.439371586,1.073108554,8.383638382,-9.279725075,215.0032043,-4.599198341,-1.232421875,-0.005859375,-1.317382813, 
598,324521669,0.719257355,-0.073796578,-0.17626299,-0.667947948,3.263687611,1.005385876,8.609164238,-4.758272171,202.2161865,-3.536864758,-1.211425781,-0.006835938,-1.339355469, 
599,324530002,0.721742928,-0.06413877,-0.165569276,-0.668999553,3.228863239,1.052531958,8.626078606,-0.800652325,199.6156769,-0.673908532,-1.192382813,-0.0078125,-1.36328125, 
600,324538335,0.724312067,-0.054088525,-0.154576033,-0.669741035,2.669380665,1.010022998,8.936905861,0.084209979,206.9300842,2.774497747,-1.170410156,-0.004882813,-1.383789063, 
601,324546668,0.726684511,-0.044723809,-0.144056693,-0.670206964,2.181620359,1.009270549,9.151877403,-0.898244381,194.4683075,4.641595364,-1.149902344,-0.00390625,-1.40625, 
602,324555001,0.728538454,-0.036740858,-0.13555713,-0.670452416,2.305734873,1.03802681,9.006964684,2.987981319,161.1862946,3.733936071,-1.129882813,0,-1.421386719, 
603,324563334,0.729956627,-0.029884372,-0.128545284,-0.670631528,2.51070261,0.947305143,8.937583923,6.368068695,134.2301941,1.610635757,-1.111816406,-0.001464844,-1.435058594, 
604,324571667,0.731289268,-0.023508573,-0.122379206,-0.670587063,2.38842082,0.991808712,9.14877224,8.657277107,121.8803711,3.684643745,-1.098144531,-0.001464844,-1.446289063, 
605,324580000,0.732783198,-0.017067663,-0.116042368,-0.670277655,1.930480599,0.99109447,9.326299667,9.282097816,123.5840378,7.704443932,-1.082519531,-0.001464844,-1.456054688, 
606,324588333,0.73442924,-0.010369361,-0.109514177,-0.669711351,1.278556108,1.044833183,9.689734459,9.515125275,128.8657837,11.40786552,-1.069824219,-0.000976563,-1.46875, 
607,324596666,0.736039042,-0.003900504,-0.10285762,-0.669067979,0.810398877,1.234357119,9.73771286,7.170104504,127.2019348,12.1752243,-1.053710938,0.002929688,-1.484375, 
608,324604999,0.73750037,0.002438074,-0.096283264,-0.668443799,0.860548437,1.215985656,9.403017044,5.529537201,125.7418289,10.83583069,-1.037597656,0.000488281,-1.493652344, 
609,324613332,0.739037097,0.009175215,-0.089042947,-0.667691231,0.877246201,1.253577352,9.236940384,4.65475893,135.4464417,12.28480148,-1.018066406,-0.000488281,-1.505859375, 
610,324621665,0.74077338,0.01642203,-0.081007637,-0.666650772,0.708105922,1.224287152,9.04339695,1.828649521,149.3035278,16.31447983,-1.000488281,0.003417969,-1.517578125, 
611,324629998,0.742974341,0.024076743,-0.071982168,-0.665002465,0.409356385,1.217285156,9.067613602,-1.81983161,162.0810852,19.14062119,-0.981933594,0.001953125,-1.52734375, 
612,324638331,0.744707525,0.031047747,-0.06317991,-0.663668036,0.267532915,1.230769873,9.051709175,-7.620346546,154.6839752,19.35523605,-0.965332031,0.007324219,-1.540039063, 
613,324646664,0.746558011,0.037229832,-0.054802179,-0.662013769,0.445256591,0.983908713,9.077160835,-10.60909271,141.4020538,15.41483212,-0.941894531,0.013183594,-1.548828125, 
614,324654997,0.747599602,0.043307643,-0.047040351,-0.661064804,0.331804037,0.706831157,9.208554268,-7.175457954,135.1268768,10.34492493,-0.922851563,0.013183594,-1.556640625, 
615,324663330,0.74886018,0.049626697,-0.039369423,-0.659693778,0.081931882,0.721441031,9.453638077,-2.342280149,134.6887512,6.27145195,-0.903808594,0.017578125,-1.563964844, 
616,324671663,0.749433339,0.056402754,-0.031621851,-0.658914685,-0.323084116,0.700067282,9.54268074,0.435821027,140.9335175,3.923849344,-0.88671875,0.015625,-1.574707031, 
617,324679996,0.750418246,0.06352511,-0.023614483,-0.657479763,-0.691053689,0.825417638,9.621131897,3.52989912,145.2259674,2.628210068,-0.870605469,0.017578125,-1.583496094, 
618,324688329,0.750694335,0.071250916,-0.015573512,-0.65661186,-0.950527191,0.77668643,9.47734642,7.978691578,152.5126801,1.557480097,-0.851074219,0.017089844,-1.594238281, 
619,324696662,0.751411796,0.079984121,-0.00684068,-0.654932201,-1.094572306,0.832849979,9.33601284,14.38830757,167.3257294,1.072776318,-0.824707031,0.01953125,-1.604492188, 
620,324704995,0.751548469,0.089943372,0.002745277,-0.653511822,-1.284107804,0.923236191,9.232671738,17.47510147,189.1556396,4.044565201,-0.799316406,0.015136719,-1.612304688, 
621,324713328,0.752359986,0.10139633,0.013937971,-0.650752723,-1.63812542,0.893384397,9.058238029,20.71042442,218.4746399,10.54823589,-0.770507813,0.015625,-1.621582031, 
622,324721661,0.752684653,0.11456202,0.026646947,-0.647789717,-1.951617956,0.884562492,9.080458641,22.38265991,252.2135925,17.95921516,-0.737792969,0.01171875,-1.6328125, 
623,324729994,0.753549039,0.129317135,0.041360632,-0.643218577,-2.193897963,0.897630394,9.124465942,23.19755173,287.1731262,26.72579002,-0.698242188,0.012207031,-1.640625, 
624,324738327,0.753752112,0.145576701,0.056791332,-0.638310194,-2.637422085,0.84460175,9.288991928,29.77233315,311.1802979,34.04190445,-0.65234375,0.011230469,-1.649902344, 
625,324746660,0.753442526,0.161494717,0.071753517,-0.633320868,-3.539310694,1.431511283,9.287338257,32.23338699,303.0063477,31.4677124,-0.606445313,0.005859375,-1.656738281, 
626,324754993,0.752470732,0.173370212,0.083787411,-0.629849434,-3.90951395,1.795262218,8.649224281,17.89588356,235.6047516,12.05155277,-0.563476563,0.004394531,-1.661132813, 
627,324763326,0.750833452,0.180089444,0.091578536,-0.628832459,-3.900508165,2.030881643,8.504623413,6.598498344,141.0552063,-14.44047451,-0.540039063,0.001464844,-1.662597656, 
628,324771659,0.749052107,0.182409525,0.095250227,-0.629742146,-3.507677794,1.87989819,8.283761024,-1.309801459,56.77920532,-31.4143734,-0.52734375,0.001464844,-1.660644531, 
629,324779992,0.747270763,0.183000848,0.096778013,-0.631451547,-3.904148579,1.705283523,8.247885704,1.347208142,16.80275536,-36.03490829,-0.520996094,0.000976563,-1.662109375, 
630,324788325,0.745744348,0.183331862,0.097835883,-0.632995129,-4.224178791,1.477797985,8.141336441,1.040476918,10.70568562,-31.78413582,-0.519042969,0.00390625,-1.661132813, 
631,324796658,0.744361043,0.183947176,0.099355541,-0.63420707,-4.333648205,1.471449256,8.314147949,-0.047629718,17.64525414,-27.42758179,-0.517578125,0.006347656,-1.661621094, 
632,324804991,0.743214607,0.184612423,0.101227336,-0.6350618,-4.248485088,1.401222229,8.443751335,-4.514705181,23.17788315,-23.01955032,-0.511230469,0,-1.663085938, 
633,324813324,0.742198527,0.185619414,0.10390605,-0.635523856,-4.264185905,1.220346451,8.637885094,-8.138177872,34.27745056,-18.94980812,-0.508789063,0.007324219,-1.664550781, 
634,324821657,0.741060734,0.187860355,0.107764296,-0.635550678,-4.230514526,1.041278481,8.784755707,-6.971744537,59.33073425,-17.30825043,-0.501953125,0.005371094,-1.663574219, 
635,324829990,0.739749849,0.191581443,0.113304496,-0.63500315,-4.247927666,0.880452812,8.567631721,-6.196602345,90.18238831,-14.61911201,-0.490722656,0.010253906,-1.663574219, 
636,324838323,0.738281786,0.196721867,0.120107181,-0.633888781,-4.293404102,0.754807115,8.501092911,-4.04237318,118.1225739,-11.84277248,-0.474121094,0.008300781,-1.662109375, 
637,324846656,0.736676097,0.203104258,0.127983674,-0.63220042,-4.259937286,0.703128755,8.527395248,-0.580825806,140.6594849,-7.535186768,-0.453125,0.010253906,-1.660644531, 
638,324854989,0.734929204,0.211012542,0.136484981,-0.629861057,-4.179127216,0.610410154,8.385955811,7.905993462,163.2928162,-1.760392427,-0.432128906,0.01171875,-1.661132813, 
639,324863322,0.733026206,0.220556676,0.145808414,-0.626711488,-4.648163319,0.710626364,8.290818214,17.03487015,187.4501343,6.337723255,-0.407226563,0.008789063,-1.66015625, 
640,324871655,0.730997324,0.230556265,0.155373648,-0.623173892,-5.33160162,1.094256639,8.15784359,18.36419296,196.2072601,8.769462585,-0.377441406,0.004394531,-1.655761719, 
641,324879988,0.728907526,0.238769934,0.163997844,-0.620312631,-5.810400009,1.455780864,7.820928097,10.88624573,168.4803467,1.246804237,-0.3515625,0.002929688,-1.653808594, 
642,324888321,0.726850152,0.24443917,0.170844555,-0.618668497,-5.723312855,1.511951804,7.502082348,2.410665989,125.8319778,-11.209445,-0.330078125,0.003417969,-1.649902344, 
643,324896654,0.724930465,0.248253003,0.176441729,-0.617830813,-5.583261013,1.592272758,7.519821167,-3.326406717,93.55365753,-17.60279465,-0.312011719,0.006347656,-1.649902344, 
644,324904987,0.723210335,0.250499755,0.180892825,-0.617652595,-5.646621704,1.690230608,7.325823784,-9.036167145,67.04454041,-23.02564812,-0.30078125,0.004882813,-1.646484375, 
645,324913320,0.721612692,0.251758158,0.184551924,-0.617926955,-5.68260622,1.416084766,7.178415775,-10.7170372,47.92730331,-25.56354713,-0.292480469,0.009277344,-1.64453125, 
646,324921653,0.720150352,0.252617419,0.187672436,-0.618342221,-5.755386353,1.288711667,7.196810722,-10.92857933,39.34052277,-25.61442757,-0.286621094,0.011230469,-1.64453125, 
647,324929986,0.718743265,0.253692538,0.191002309,-0.618519664,-5.890852928,1.107425451,7.346032143,-10.68373394,42.94156265,-22.31682205,-0.278320313,0.018554688,-1.640136719, 
648,324938319,0.717350721,0.255136907,0.194469407,-0.618461907,-6.048340321,0.970202684,7.406366348,-9.559729576,49.21085358,-20.01953316,-0.277832031,0.017089844,-1.642089844, 
649,324946652,0.715856612,0.256839454,0.19816944,-0.618313849,-6.095183849,0.958231449,7.317996025,-8.201663017,53.29195023,-19.47685242,-0.267578125,0.020996094,-1.641601563, 
650,324954985,0.714280784,0.258975446,0.202077508,-0.617980361,-6.18431282,0.927329898,7.20278883,-6.596778393,60.90316391,-18.5401516,-0.258789063,0.020996094,-1.634765625, 
651,324963318,0.712580085,0.261742413,0.206562355,-0.617294788,-6.353782654,0.886086583,7.241414547,-5.159897327,72.51922607,-15.79807758,-0.248535156,0.020996094,-1.635253906, 
652,324971651,0.710933626,0.265206903,0.211441875,-0.616061151,-6.326608181,0.850879431,7.166325092,-4.098957062,85.13700867,-10.05258846,-0.237792969,0.020019531,-1.630859375, 
653,324979984,0.70933181,0.269471258,0.216863334,-0.61416924,-6.394283772,0.845254242,7.221656322,-2.287665606,98.45598602,-2.225627422,-0.224609375,0.023925781,-1.626464844, 
654,324988317,0.707592964,0.273966014,0.222707197,-0.612091959,-6.491934299,1.17289412,7.164432526,-4.311623096,106.6435852,-3.117193699,-0.210449219,0.023925781,-1.623046875, 
655,324996650,0.70569557,0.277345508,0.228153169,-0.610753238,-6.770638943,1.345762134,6.72480011,-8.311278343,90.0515976,-12.87428379,-0.192871094,0.026367188,-1.618164063, 
656,325004983,0.703976989,0.278690249,0.232226521,-0.610589266,-6.925403118,1.37446332,6.467569828,-14.16660404,55.63310242,-24.60308266,-0.1875,0.030273438,-1.613769531, 
657,325013316,0.702661455,0.277841628,0.234954298,-0.611447036,-6.796552658,1.082826376,6.475135326,-21.76092911,17.94293022,-32.28329849,-0.183105469,0.032714844,-1.615722656, 
658,325021649,0.701730251,0.276157498,0.236312464,-0.612754583,-6.632200241,0.757908046,6.723416805,-18.95290184,-4.236458302,-31.53642082,-0.177734375,0.0390625,-1.614746094, 
659,325029982,0.701136053,0.274321526,0.236764818,-0.614083469,-6.664193153,0.731154621,6.84021616,-13.3867445,-16.50130844,-25.30746841,-0.182128906,0.042480469,-1.612304688, 
660,325038315,0.701059997,0.2724078,0.236404151,-0.615160346,-6.718129158,0.618661642,6.877271175,-10.65313625,-24.66567039,-16.33888626,-0.183105469,0.046875,-1.616210938, 
661,325046648,0.701270878,0.270587713,0.235739559,-0.615977526,-6.727917671,0.576996088,6.892682552,-8.48045826,-27.83822823,-9.323550224,-0.189941406,0.045898438,-1.615722656, 
662,325054981,0.701668561,0.268961221,0.234720588,-0.616625905,-6.616253853,0.600310028,6.891970158,-5.471601486,-28.52043533,-4.808423042,-0.190917969,0.048339844,-1.618652344, 
663,325063314,0.702090919,0.267455339,0.233459115,-0.617278636,-6.611400127,0.619341195,6.854558945,-1.700312614,-31.01496124,-2.719965458,-0.196289063,0.05078125,-1.618652344, 
664,325071647,0.70265007,0.265999675,0.231705904,-0.617931545,-6.608242035,0.605235815,6.946809769,1.829498887,-34.6962738,-0.225418329,-0.201660156,0.048828125,-1.622558594, 
665,325079980,0.703414261,0.264687747,0.229755849,-0.618353546,-6.478839397,0.673929095,6.983033657,4.040420055,-36.27248001,5.553684711,-0.208007813,0.047851563,-1.618652344, 
666,325088313,0.704583585,0.26305598,0.227379933,-0.618596971,-6.486105442,0.812129378,6.924153328,1.896404147,-42.6571312,10.63891506,-0.210449219,0.049316406,-1.624023438, 
667,325096646,0.70602715,0.260677636,0.224406958,-0.619043171,-6.34193182,0.734835744,6.904007435,0.021413565,-57.47671127,11.44813728,-0.21875,0.049804688,-1.627441406, 
668,325104979,0.707664788,0.256875157,0.220309913,-0.620233178,-6.548522949,0.98570472,6.83108902,-3.273173332,-82.68812561,4.898367405,-0.227539063,0.047851563,-1.628417969, 
669,325113312,0.709519029,0.250788271,0.214683056,-0.622574687,-6.302461147,0.824077129,6.837023735,-9.086527824,-122.8842163,-5.385196209,-0.239257813,0.048339844,-1.62890625, 
670,325121645,0.711754203,0.243139446,0.207080528,-0.625625253,-5.951245308,0.841947556,7.211291313,-7.277355671,-158.0082092,-7.432146549,-0.261230469,0.047851563,-1.635253906, 
671,325129978,0.714458227,0.234411165,0.198306695,-0.628709376,-5.735332966,0.761003554,7.340805531,-8.578342438,-181.3294373,-2.331898212,-0.28515625,0.047851563,-1.64453125, 
672,325138311,0.717478693,0.225390479,0.188875467,-0.631466269,-5.847563267,0.6593256,7.572027683,-8.338478088,-189.0054779,4.389368057,-0.315917969,0.053222656,-1.647460938, 
673,325146644,0.720522702,0.216408834,0.179349735,-0.633914828,-5.682961941,0.670791328,7.847753048,-7.328914165,-189.8291321,8.536625862,-0.339355469,0.05078125,-1.650878906, 
674,325154977,0.723607838,0.207775414,0.169913024,-0.635885894,-5.312397003,0.626924157,8.043047905,-6.628712654,-183.4679108,13.71424294,-0.369140625,0.055175781,-1.65234375, 
675,325163310,0.726815939,0.19947432,0.160882309,-0.63723284,-5.35268116,0.562023699,8.219961166,-7.988366604,-176.1663513,21.0803318,-0.394042969,0.055664063,-1.659179688, 
676,325171643,0.730075479,0.190909401,0.151747718,-0.638369918,-5.283215523,0.677992404,8.440555573,-11.01283169,-177.9152679,22.86621857,-0.418457031,0.056152344,-1.657226563, 
677,325179976,0.733283222,0.180742353,0.141674548,-0.639965892,-4.959938526,0.970188022,8.40120697,-17.0540657,-203.6546631,17.34939384,-0.4453125,0.055664063,-1.657714844, 
678,325188309,0.736464739,0.168479756,0.129627869,-0.642207921,-4.563413143,0.996522307,8.410624504,-20.20483208,-242.406662,11.00350189,-0.477539063,0.061035156,-1.66015625, 
679,325196642,0.739326179,0.154708043,0.11589808,-0.645004034,-4.123442173,0.865017891,8.630932808,-18.16917229,-274.6723328,4.136872768,-0.519042969,0.063476563,-1.660644531, 
