PacketCounter,SampleTimeFine,Quat_W,Quat_X,Quat_Y,Quat_Z,Acc_X,Acc_Y,Acc_Z,Gyr_X,Gyr_Y,Gyr_Z,Mag_X,Mag_Y,Mag_Z
1,4221639473,-0.634835,-0.285441,0.689535,-0.200145,9.782249451,0.844693542,-1.14874661,-1.404005766,-0.115994066,-0.373365879,-1.013183594,-0.84765625,0.157714844
2,4221647806,-0.634859,-0.2854,0.689543,-0.200101,9.774438858,0.858033597,-1.15423286,-1.257646203,-0.056056757,-0.137177035,-1.011230469,-0.850585938,0.160644531
3,4221656139,-0.634886,-0.28535,0.689553,-0.200052,9.813349724,0.856366992,-1.159518719,-1.249552011,-0.005443025,-0.133514196,-1.012695313,-0.849121094,0.16015625
4,4221664472,-0.634919,-0.285307,0.689559,-0.199989,9.791240692,0.8805722,-1.146371841,-1.465889931,-0.021964207,-0.321599543,-1.009277344,-0.851074219,0.161132813
5,4221672805,-0.634958,-0.285256,0.689563,-0.199923,9.804767609,0.879929483,-1.164677501,-1.788783073,0.072001629,-0.279233575,-1.010253906,-0.849609375,0.159179688
6,4221681138,-0.635006,-0.285188,0.689567,-0.199852,9.800741196,0.844695508,-1.144670248,-1.82290113,0.175201356,-0.212406039,-1.013671875,-0.851074219,0.162109375
7,4221689471,-0.635052,-0.285118,0.689574,-0.199783,9.79011631,0.832579195,-1.157728076,-1.686531067,0.163905486,-0.180260196,-1.014648438,-0.848144531,0.15625
8,4221697804,-0.635092,-0.285064,0.689575,-0.199732,9.792943001,0.860866129,-1.160534501,-1.471960306,0.175457492,-0.14967677,-1.010253906,-0.847167969,0.157714844
9,4221706137,-0.635129,-0.285025,0.689568,-0.199692,9.785375595,0.843806565,-1.158960819,-1.052476048,0.234626397,-0.241170809,-1.008300781,-0.849121094,0.158203125
10,4221714470,-0.635169,-0.284995,0.689556,-0.19965,9.798521996,0.882124066,-1.131371975,-1.135184407,0.260957807,-0.35605067,-1.012207031,-0.848632813,0.158691406
11,4221722803,-0.635211,-0.284959,0.689548,-0.199595,9.777886391,0.86783272,-1.130513549,-1.375574112,0.212342024,-0.400184035,-1.01171875,-0.845214844,0.156738281
12,4221731136,-0.635259,-0.284903,0.689545,-0.199532,9.784123421,0.874671102,-1.125049233,-1.617910266,0.250993878,-0.281692535,-1.010742188,-0.849121094,0.157714844
13,4221739469,-0.635307,-0.284823,0.689557,-0.199452,9.800433159,0.881152928,-1.122094035,-1.720418692,0.140673384,-0.174061537,-1.009277344,-0.849609375,0.155761719
14,4221747802,-0.635352,-0.284768,0.689555,-0.199395,9.773036957,0.861452878,-1.131014943,-1.548956752,0.221025229,-0.228671074,-1.010742188,-0.847167969,0.158691406
15,4221756135,-0.635389,-0.284716,0.689559,-0.199336,9.815166473,0.853133857,-1.146986961,-1.500340939,0.096847422,-0.24263081,-1.01171875,-0.8515625,0.158203125
16,4221764468,-0.635422,-0.284679,0.689553,-0.199304,9.812742233,0.871438026,-1.122102261,-1.090538859,0.186753377,-0.147627637,-1.007324219,-0.848632813,0.158691406
17,4221772801,-0.635455,-0.284651,0.689541,-0.19928,9.794859886,0.850229859,-1.149683595,-0.902965724,0.265978217,-0.208256528,-1.012207031,-0.848632813,0.156738281
18,4221781134,-0.635478,-0.28464,0.689529,-0.199267,9.794530869,0.81943661,-1.158652902,-0.636296093,0.161216006,-0.24027434,-1.010253906,-0.849121094,0.155273438
19,4221789467,-0.6355,-0.284637,0.689507,-0.199276,9.78533268,0.858412683,-1.128990412,-0.334816456,0.303195685,-0.159179658,-1.01171875,-0.850585938,0.154785156
20,4221797800,-0.635523,-0.284642,0.689476,-0.1993,9.805130959,0.861424029,-1.141107321,-0.089047894,0.424427897,-0.125420108,-1.008300781,-0.851074219,0.157226563
21,4221806133,-0.635534,-0.284659,0.689448,-0.199339,9.790524483,0.87150985,-1.12940526,0.182219669,0.309650511,-0.085871726,-1.011230469,-0.852050781,0.157226563
22,4221814466,-0.635548,-0.284673,0.689422,-0.199364,9.793086052,0.847955227,-1.131758571,0.026587576,0.274635822,-0.167837247,-1.007324219,-0.848632813,0.159667969
23,4221822799,-0.63556,-0.284688,0.689395,-0.199396,9.802484512,0.866087675,-1.123139381,0.006582858,0.295280904,-0.112280004,-1.010253906,-0.848632813,0.157714844
24,4221831132,-0.635566,-0.284709,0.689371,-0.199429,9.78164196,0.892195582,-1.127238035,0.183321074,0.187777936,-0.138841957,-1.009765625,-0.850097656,0.155761719
25,4221839465,-0.63557,-0.284735,0.689342,-0.199483,9.7786026,0.872110784,-1.120199561,0.247868955,0.282243282,0.004969162,-1.008300781,-0.849609375,0.159667969
26,4221847798,-0.635572,-0.284764,0.689315,-0.199527,9.791547775,0.858813226,-1.129355192,0.370766044,0.202326834,-0.109359972,-1.006347656,-0.848632813,0.158203125
27,4221856131,-0.635574,-0.284783,0.689293,-0.199572,9.812291145,0.857625842,-1.13200891,0.499272645,0.205733538,-0.025217213,-1.013183594,-0.849609375,0.155761719
28,4221864464,-0.635574,-0.284828,0.689258,-0.199627,9.803364754,0.872353554,-1.131708503,0.650985897,0.251454979,-0.196986288,-1.009765625,-0.849609375,0.159667969
29,4221872797,-0.635574,-0.284863,0.689228,-0.199679,9.797406197,0.8805722,-1.15107131,0.523606181,0.235830262,-0.115994073,-1.011230469,-0.847167969,0.158691406
30,4221881130,-0.635574,-0.284905,0.689194,-0.199738,9.75444603,0.862039328,-1.136307716,0.670042753,0.27169016,-0.139635995,-1.010742188,-0.849609375,0.159667969
31,4221889463,-0.635579,-0.284953,0.689149,-0.199809,9.77528286,0.86226809,-1.140063047,0.750548244,0.443945885,-0.127776608,-1.012207031,-0.848632813,0.158691406
32,4221897796,-0.635584,-0.284991,0.689114,-0.19986,9.809423447,0.867682755,-1.121580124,0.536643803,0.293487906,-0.178415954,-1.010742188,-0.850097656,0.157714844
33,4221906129,-0.635587,-0.285023,0.689083,-0.199912,9.806276321,0.858956277,-1.135334969,0.435800582,0.272228092,-0.093607217,-1.009277344,-0.850585938,0.15625
34,4221914462,-0.635598,-0.28505,0.689048,-0.199961,9.790346146,0.887402713,-1.115814805,0.390591443,0.386032164,-0.109180674,-1.010742188,-0.848632813,0.158203125
35,4221922795,-0.635599,-0.28508,0.689019,-0.200013,9.781084061,0.858734906,-1.12526381,0.433264762,0.234421492,-0.067992993,-1.010253906,-0.851074219,0.157714844
36,4221931128,-0.635605,-0.28511,0.688987,-0.200061,9.777013779,0.876473606,-1.123833179,0.422404319,0.296254218,-0.123934478,-1.008789063,-0.849609375,0.157226563
37,4221939461,-0.635614,-0.285133,0.688954,-0.200114,9.801834106,0.845330119,-1.128074884,0.531546593,0.40260452,-0.035360452,-1.013671875,-0.848144531,0.159179688
38,4221947794,-0.63562,-0.285174,0.688912,-0.200178,9.800639153,0.858340859,-1.120314002,0.696758389,0.411620766,-0.12711063,-1.012207031,-0.850097656,0.158691406
39,4221956127,-0.635631,-0.285214,0.688867,-0.20024,9.783107758,0.881365776,-1.124898911,0.579547644,0.484288275,-0.158334389,-1.010253906,-0.850585938,0.155761719
40,4221964460,-0.635641,-0.285253,0.688824,-0.200303,9.776748657,0.872611105,-1.126980424,0.653009236,0.464923978,-0.125881165,-1.010742188,-0.849121094,0.156738281
41,4221972793,-0.635655,-0.285287,0.688781,-0.200359,9.794988632,0.867561162,-1.116773367,0.54348278,0.491921395,-0.15462032,-1.008300781,-0.848144531,0.155273438
42,4221981126,-0.635664,-0.285319,0.688739,-0.200428,9.797821045,0.856188178,-1.109742165,0.658541977,0.496506304,-0.014945905,-1.01171875,-0.849121094,0.156738281
43,4221989459,-0.63567,-0.285339,0.688707,-0.20049,9.787742615,0.852926433,-1.116708994,0.483417422,0.391001314,0.085577153,-1.010253906,-0.8515625,0.158691406
44,4221997792,-0.635666,-0.285373,0.688678,-0.200555,9.797348976,0.873469472,-1.110299945,0.650473475,0.216235355,0.033913247,-1.011230469,-0.852050781,0.155273438
45,4222006125,-0.63567,-0.285397,0.688652,-0.2006,9.7935009,0.843255818,-1.103769541,0.638357937,0.271049827,-0.095630743,-1.009765625,-0.849121094,0.157714844
46,4222014458,-0.635668,-0.285436,0.688621,-0.200657,9.79725647,0.855279744,-1.097124457,0.617584825,0.222843841,-0.105492219,-1.008300781,-0.848144531,0.158203125
47,4222022791,-0.635676,-0.285464,0.688587,-0.200705,9.805667877,0.855165303,-1.087732792,0.428756684,0.343410015,-0.124984659,-1.012207031,-0.850097656,0.157714844
48,4222031124,-0.635684,-0.285474,0.68857,-0.200723,9.793229103,0.8731547,-1.095336318,-0.087741561,0.123896047,-0.153647006,-1.009277344,-0.852050781,0.157714844
49,4222039457,-0.635696,-0.285473,0.688556,-0.200736,9.797019958,0.849435866,-1.127209425,-0.236816406,0.152404696,-0.076599367,-1.009765625,-0.849121094,0.158691406
50,4222047790,-0.635704,-0.285464,0.688548,-0.20075,9.804122925,0.867904305,-1.109691978,-0.317168266,0.085551545,0.042980686,-1.007324219,-0.851074219,0.157226563
51,4222056123,-0.635715,-0.285473,0.688529,-0.200768,9.79390049,0.848069549,-1.105650663,-0.114738964,0.179683849,-0.154210493,-1.010742188,-0.849121094,0.16015625
52,4222064456,-0.635722,-0.285492,0.688511,-0.200781,9.763523102,0.853005111,-1.093233347,-0.05249637,0.07174547,-0.269423336,-1.008789063,-0.850097656,0.159667969
53,4222072789,-0.63573,-0.285515,0.688486,-0.200807,9.770111084,0.865114868,-1.09273982,0.180836499,0.197229609,-0.236918882,-1.008789063,-0.851074219,0.159667969
54,4222081122,-0.635732,-0.28554,0.688467,-0.200832,9.77186203,0.886473298,-1.092625737,0.137650892,0.067595959,-0.217887476,-1.012207031,-0.849609375,0.157714844
55,4222089455,-0.635735,-0.285546,0.688458,-0.200845,9.785432816,0.865243673,-1.08887732,0.138009489,0.034732901,-0.14457953,-1.008300781,-0.850097656,0.158203125
56,4222097788,-0.635731,-0.285561,0.688453,-0.200857,9.826325417,0.872074604,-1.086252213,-0.0868963,-0.141480237,-0.154620335,-1.009765625,-0.851074219,0.156738281
57,4222106121,-0.635722,-0.285576,0.688449,-0.200876,9.833263397,0.856774688,-1.081753016,-0.168708161,-0.169117987,-0.065892614,-1.01171875,-0.848632813,0.158691406
58,4222114454,-0.63572,-0.285573,0.688453,-0.200873,9.789881706,0.857632637,-1.084407091,-0.41629535,-0.204311937,-0.095374599,-1.010742188,-0.846191406,0.155761719
59,4222122787,-0.63572,-0.285565,0.68846,-0.200858,9.777171135,0.837962687,-1.115850687,-0.555739284,-0.234229356,-0.151444167,-1.009765625,-0.853515625,0.157226563
60,4222131120,-0.635711,-0.28557,0.688468,-0.200851,9.771921158,0.846860826,-1.088533998,-0.361583322,-0.340425968,-0.168195859,-1.009765625,-0.853027344,0.156738281
61,4222139453,-0.635707,-0.285566,0.688477,-0.200838,9.807928085,0.855215371,-1.099520683,-0.380051225,-0.280258179,-0.162586346,-1.011230469,-0.849121094,0.157714844
62,4222147786,-0.635707,-0.285558,0.688483,-0.200831,9.770325661,0.870429456,-1.101852536,-0.513731897,-0.204465628,-0.087639101,-1.008789063,-0.849121094,0.158203125
63,4222156119,-0.635706,-0.285552,0.68849,-0.200818,9.777986526,0.873805583,-1.129555464,-0.573208213,-0.245781377,-0.130363658,-1.011230469,-0.849121094,0.157226563
64,4222164452,-0.635702,-0.285549,0.688493,-0.200824,9.796404839,0.825001955,-1.162630081,-0.327004105,-0.179312453,-0.018762426,-1.009277344,-0.852050781,0.158203125
65,4222172785,-0.635697,-0.285566,0.688486,-0.200843,9.790331841,0.761455894,-1.151500463,-0.028393377,-0.096783385,-0.122397617,-1.0078125,-0.848144531,0.158203125
66,4222181118,-0.635697,-0.285593,0.688466,-0.200871,9.794301987,0.765118182,-1.126694322,0.197178394,0.06733983,-0.205131605,-1.0078125,-0.851074219,0.159667969
67,4222189451,-0.635695,-0.285612,0.688458,-0.200876,9.77650547,0.773215175,-1.12996316,-0.12946716,-0.125010282,-0.280437469,-1.007324219,-0.848144531,0.157714844
68,4222197784,-0.635701,-0.285636,0.688449,-0.200856,9.779838562,0.744510829,-1.180233359,-0.333510131,-0.16217652,-0.567854762,-1.008300781,-0.849609375,0.157226563
69,4222206117,-0.635713,-0.28566,0.688433,-0.200839,9.779774666,0.760111153,-1.168109298,-0.259023964,-0.003803714,-0.59769541,-1.007324219,-0.851074219,0.157714844
70,4222214450,-0.635716,-0.285697,0.688413,-0.200848,9.813721657,0.81703347,-1.157587528,0.093543194,-0.013409053,-0.478333026,-1.010253906,-0.848632813,0.159179688
71,4222222783,-0.635723,-0.285717,0.688393,-0.200861,9.812934875,0.821582675,-1.158717632,0.131119266,0.111037709,-0.311123312,-1.010253906,-0.850097656,0.159179688
72,4222231116,-0.635746,-0.285735,0.688366,-0.200859,9.794659615,0.770690203,-1.147523403,-0.234536752,0.255783737,-0.468650877,-1.010742188,-0.8515625,0.158203125
73,4222239449,-0.635785,-0.285726,0.68835,-0.200802,9.779223442,0.685456932,-1.131958842,-1.111721873,0.163367584,-0.694209754,-1.006347656,-0.8515625,0.157226563
74,4222247782,-0.63584,-0.285697,0.688342,-0.200698,9.827025414,0.686239362,-1.147049546,-1.783531904,0.123563059,-0.938748896,-1.011230469,-0.849121094,0.155761719
75,4222256115,-0.635907,-0.285659,0.688328,-0.200587,9.83698082,0.58086729,-1.283220291,-2.116081715,0.271946371,-0.953374565,-1.009765625,-0.851074219,0.155761719
76,4222264448,-0.635966,-0.285718,0.68827,-0.200516,9.888198853,0.52624768,-1.24465096,-0.590446472,0.476014882,-1.685864925,-1.009277344,-0.849121094,0.157714844
77,4222272781,-0.636003,-0.285821,0.688206,-0.200472,9.833947182,0.586476982,-1.217743874,0.392307639,0.335341603,-1.866394281,-1.0078125,-0.852050781,0.157714844
78,4222281114,-0.636021,-0.28594,0.688152,-0.20043,9.862118721,0.747252941,-1.15739572,0.37243098,0.001203869,-1.873591781,-1.012695313,-0.851074219,0.158203125
79,4222289447,-0.636072,-0.285951,0.68813,-0.200324,9.892829895,0.975011528,-1.130288601,-1.15101397,0.117057048,-1.4026227,-1.010742188,-0.852539063,0.158203125
80,4222297780,-0.636093,-0.285936,0.688127,-0.200289,9.874335289,1.003164887,-1.065308928,-0.882935584,-0.015253278,-0.349211663,-1.009277344,-0.851074219,0.156738281
81,4222306113,-0.636103,-0.285958,0.688101,-0.200317,9.760325432,1.030889511,-0.985018313,0.1761491,0.243642583,-0.218579084,-1.012207031,-0.850585938,0.155761719
82,4222314446,-0.636096,-0.286012,0.688084,-0.200322,9.664442062,1.187250376,-0.968216002,0.232705325,-0.199342787,-0.636270404,-1.010253906,-0.851074219,0.156738281
83,4222322779,-0.636078,-0.286082,0.688059,-0.200363,9.686730385,1.266832829,-0.980390131,0.994575143,-0.100958511,-0.492625743,-1.0078125,-0.851074219,0.15625
84,4222331112,-0.636024,-0.286137,0.688052,-0.200478,9.74888134,1.2479496,-0.956392705,1.449355721,-0.295754731,0.481086522,-1.012207031,-0.852050781,0.154296875
85,4222339445,-0.635945,-0.286171,0.688062,-0.200649,9.7530756,1.113903403,-0.916247427,1.807750225,-0.389169842,1.319696665,-1.013183594,-0.853515625,0.159179688
86,4222347778,-0.635849,-0.286216,0.688076,-0.200841,9.743930817,0.956120253,-0.978863716,2.183895111,-0.555508673,1.459114909,-1.010253906,-0.8515625,0.157714844
87,4222356111,-0.63573,-0.286301,0.688093,-0.201037,9.74075222,0.854853392,-1.009068847,2.85847187,-0.854452431,1.159838319,-1.010742188,-0.854980469,0.157226563
88,4222364444,-0.635585,-0.286417,0.688114,-0.201261,9.800198555,0.822903454,-1.040244102,3.293272972,-1.14350903,1.22254169,-1.0078125,-0.8515625,0.159179688
89,4222372777,-0.635439,-0.286522,0.688144,-0.201469,9.827222824,0.836637616,-1.052612185,3.121351004,-1.244787812,1.224949598,-1.010742188,-0.853027344,0.160644531
90,4222381110,-0.635306,-0.286564,0.688203,-0.201625,9.820152283,0.914195657,-1.125709414,1.84358418,-1.418785214,1.444873333,-1.010742188,-0.852539063,0.163574219
91,4222389443,-0.635197,-0.286505,0.688307,-0.201697,9.805669785,0.983112514,-1.128531933,-0.042404369,-1.637120962,1.789589882,-1.0078125,-0.850097656,0.157226563
92,4222397776,-0.635081,-0.286434,0.68842,-0.201779,9.858463287,0.957696795,-1.218693018,-0.060078193,-1.703974247,2.02547121,-1.013183594,-0.853027344,0.162109375
93,4222406109,-0.634953,-0.28641,0.688491,-0.201972,9.868453026,0.821401596,-1.255175591,1.600531101,-1.148785591,2.428997993,-1.014160156,-0.850097656,0.163574219
94,4222414442,-0.634786,-0.286478,0.688527,-0.20228,9.814002037,0.752866447,-1.244595766,3.711144447,-1.011980057,2.547284603,-1.014648438,-0.84765625,0.159179688
95,4222422775,-0.634591,-0.286643,0.688512,-0.20271,9.838020325,0.83501035,-1.216919422,5.947676659,-0.61782819,2.549845934,-1.010742188,-0.848144531,0.159179688
96,4222431108,-0.634392,-0.28687,0.688454,-0.203205,9.825724602,0.960144997,-1.240056753,7.257948399,-0.208717629,2.388527632,-1.013671875,-0.84765625,0.166015625
97,4222439441,-0.634196,-0.287135,0.688366,-0.20374,9.823795319,1.053375363,-1.19997561,7.825815678,0.132809833,2.248315334,-1.012207031,-0.848632813,0.159667969
98,4222447774,-0.634005,-0.287361,0.688289,-0.204277,9.784580231,1.127160549,-1.142969489,7.674870968,0.204222336,2.666391134,-1.010742188,-0.84765625,0.159667969
99,4222456107,-0.633821,-0.287513,0.688235,-0.204814,9.802179337,1.113192916,-1.106811047,6.843561649,0.27422604,3.436406612,-1.014648438,-0.848144531,0.165527344
100,4222464440,-0.63364,-0.287605,0.688211,-0.205326,9.834295273,1.08659935,-1.066368222,6.084507942,0.116442323,3.896437168,-1.009277344,-0.848144531,0.1640625
101,4222472773,-0.633448,-0.287705,0.688185,-0.205863,9.85317421,1.032544971,-1.051134825,6.439649582,0.119695343,4.03647089,-1.014160156,-0.845703125,0.1640625
102,4222481106,-0.633231,-0.287816,0.688162,-0.206452,9.822051048,0.972388983,-1.037819147,7.108155727,0.011219034,4.495810509,-1.012207031,-0.845703125,0.163085938
103,4222489439,-0.632968,-0.288001,0.688122,-0.207133,9.804457664,0.894566596,-1.010232329,9.009322166,-0.088868603,4.626904488,-1.012695313,-0.849609375,0.165039063
104,4222497772,-0.632644,-0.288277,0.688068,-0.207917,9.833481789,0.857112646,-0.975984573,10.90703011,-0.420675457,4.800723553,-1.014648438,-0.844726563,0.166015625
105,4222506105,-0.632273,-0.288616,0.688011,-0.208761,9.850171089,0.841143012,-0.940066099,12.45020866,-0.760806859,4.83071661,-1.012207031,-0.846679688,0.166992188
106,4222514438,-0.631859,-0.289024,0.687942,-0.209676,9.85710907,0.87081629,-0.888092577,13.69173145,-1.00762558,4.894214153,-1.013183594,-0.843261719,0.169921875
107,4222522771,-0.63142,-0.289403,0.687913,-0.210566,9.789482117,0.856226385,-0.881216168,14.21452045,-1.511970162,5.057941914,-1.012207031,-0.842285156,0.171875
108,4222531104,-0.630964,-0.289797,0.6879,-0.211434,9.763056755,0.882211447,-0.883348703,13.12463379,-2.036498308,4.962016582,-1.015625,-0.845703125,0.173339844
109,4222539437,-0.630515,-0.290126,0.687938,-0.212197,9.739603043,0.964021444,-0.908509731,11.02800465,-2.661895752,4.895521164,-1.014160156,-0.843261719,0.171386719
110,4222547770,-0.630096,-0.29033,0.688045,-0.212813,9.784309387,0.959127784,-0.962895632,8.599802017,-3.167034388,4.941986084,-1.013671875,-0.842285156,0.171875
111,4222556103,-0.629692,-0.290414,0.688214,-0.213349,9.864659309,0.908232808,-0.972114503,6.552275658,-3.529885054,5.582060337,-1.015136719,-0.843261719,0.175292969
112,4222564436,-0.629298,-0.290434,0.688418,-0.213827,9.88942337,0.781710863,-1.014484882,5.321280479,-3.793890953,5.806363583,-1.017578125,-0.842773438,0.174804688
113,4222572769,-0.628895,-0.290459,0.688634,-0.214281,9.852499008,0.652589619,-0.997821629,5.130941391,-4.083818436,5.625525951,-1.01953125,-0.842285156,0.174316406
114,4222581102,-0.628491,-0.290512,0.688847,-0.214711,9.794850349,0.593043447,-1.040371656,5.158680916,-4.261555195,5.142236233,-1.014160156,-0.83984375,0.176757813
115,4222589435,-0.628093,-0.290562,0.689075,-0.215078,9.739367485,0.618189573,-1.072611213,4.458542824,-4.554608822,4.667272568,-1.016601563,-0.83984375,0.181152344
116,4222597768,-0.627709,-0.290555,0.689338,-0.215364,9.697778702,0.718557417,-1.124053001,3.052602291,-4.887388706,4.611484528,-1.01953125,-0.840820313,0.177734375
117,4222606101,-0.627359,-0.29045,0.689642,-0.21555,9.735246658,0.78975594,-1.200351596,0.999544322,-5.030546188,4.735534668,-1.021484375,-0.838867188,0.180664063
118,4222614434,-0.627063,-0.290238,0.689972,-0.215641,9.788639069,0.799553573,-1.273414493,-1.116972804,-4.820637226,4.870981693,-1.021484375,-0.837402344,0.1796875
119,4222622767,-0.626811,-0.289954,0.690313,-0.215664,9.792678833,0.777997434,-1.367109537,-2.595477581,-4.53506422,4.885530949,-1.01953125,-0.838867188,0.181152344
120,4222631100,-0.626602,-0.289631,0.690646,-0.215641,9.807806969,0.707344055,-1.418333769,-3.513287067,-4.126312733,4.700520039,-1.020507813,-0.836425781,0.180664063
121,4222639433,-0.626427,-0.289314,0.690942,-0.215627,9.832953453,0.707878053,-1.475663066,-3.401045084,-3.47069025,4.47060585,-1.018066406,-0.836425781,0.181152344
122,4222647766,-0.62628,-0.289024,0.691185,-0.215664,9.795541763,0.635085046,-1.485007882,-2.641890526,-2.63064599,4.356264114,-1.01953125,-0.836425781,0.186035156
123,4222656099,-0.626151,-0.288784,0.69138,-0.215735,9.754904747,0.640289128,-1.479304314,-1.817317009,-2.05150795,3.940186739,-1.01953125,-0.834472656,0.182128906
124,4222664432,-0.626046,-0.288566,0.691534,-0.215839,9.702498436,0.629892051,-1.444482327,-1.283132315,-1.406208754,3.778714657,-1.019042969,-0.832519531,0.183105469
125,4222672765,-0.625955,-0.28836,0.691663,-0.215964,9.761945724,0.61434269,-1.413460493,-0.956832469,-1.008547544,3.692291975,-1.020507813,-0.833496094,0.182617188
126,4222681098,-0.62587,-0.288165,0.691777,-0.216106,9.836502075,0.581853807,-1.338572979,-0.699742436,-0.79374671,3.66045332,-1.01953125,-0.830566406,0.180175781
127,4222689431,-0.625799,-0.287987,0.691868,-0.216256,9.871515274,0.547559559,-1.275410533,-0.445290685,-0.482918024,3.443270683,-1.021972656,-0.833496094,0.181152344
128,4222697764,-0.625732,-0.287817,0.691957,-0.216391,9.855285645,0.538867474,-1.208670974,-0.54472512,-0.498619497,3.213356972,-1.021972656,-0.833984375,0.1796875
129,4222706097,-0.625653,-0.28767,0.692049,-0.216521,9.764862061,0.56197381,-1.15149045,-0.36855039,-0.729583025,3.007085323,-1.024902344,-0.832519531,0.182128906
130,4222714430,-0.625552,-0.28754,0.692148,-0.216668,9.725655556,0.55933547,-1.0981251,0.027817061,-0.999377787,3.072197199,-1.021484375,-0.832519531,0.181152344
131,4222722763,-0.625436,-0.287409,0.692266,-0.216802,9.722119331,0.594707727,-1.104675174,-0.110358946,-1.33748579,3.104214907,-1.022949219,-0.831542969,0.182617188
132,4222731096,-0.625289,-0.287287,0.692407,-0.216937,9.696077347,0.62462461,-1.094772935,0.036013614,-1.863422632,3.198859215,-1.020996094,-0.831542969,0.180175781
133,4222739429,-0.625121,-0.287178,0.692562,-0.217068,9.692584038,0.619705021,-1.067106724,0.170411482,-2.221970797,3.154649019,-1.022949219,-0.831542969,0.180664063
134,4222747762,-0.624939,-0.287068,0.692735,-0.217186,9.723252296,0.626228452,-1.100113153,0.02620336,-2.567378759,3.182568789,-1.021972656,-0.830566406,0.183105469
135,4222756095,-0.624729,-0.286967,0.692929,-0.217305,9.788151741,0.627536416,-1.063146949,0.228760749,-3.044187784,3.244299173,-1.022460938,-0.829101563,0.182617188
136,4222764428,-0.624486,-0.286895,0.693129,-0.217464,9.862647057,0.57542789,-1.090780497,0.894910216,-3.336395025,3.452850103,-1.025390625,-0.831054688,0.179199219
137,4222772761,-0.624229,-0.28683,0.69334,-0.217613,9.843014717,0.552471042,-1.095921278,0.894730806,-3.607086182,3.38179636,-1.021484375,-0.83203125,0.183105469
138,4222781094,-0.623956,-0.286791,0.693564,-0.217734,9.833021164,0.570199728,-1.138165712,0.873573482,-4.082281113,2.997787237,-1.026855469,-0.827148438,0.182128906
139,4222789427,-0.623663,-0.286773,0.693793,-0.217869,9.853413582,0.539819479,-1.178117275,1.261731625,-4.315908909,2.982880116,-1.0234375,-0.829589844,0.183105469
140,4222797760,-0.623356,-0.286777,0.694021,-0.218012,9.822608948,0.51962471,-1.19426024,1.55975318,-4.477739811,2.891975403,-1.023925781,-0.828125,0.189941406
141,4222806093,-0.623035,-0.286802,0.694257,-0.218149,9.776846886,0.544882238,-1.274832129,1.750784278,-4.75947094,2.715698242,-1.026367188,-0.826660156,0.188476563
142,4222814426,-0.622714,-0.28683,0.694492,-0.218279,9.760332108,0.556306899,-1.298906446,1.671610475,-4.794971943,2.614624262,-1.025390625,-0.827148438,0.186035156
143,4222822759,-0.62239,-0.286846,0.69474,-0.218392,9.774098396,0.567471087,-1.306651235,1.433500648,-4.952423096,2.64705205,-1.0234375,-0.827148438,0.186035156
144,4222831092,-0.622069,-0.286836,0.694998,-0.218501,9.808769226,0.538796306,-1.33061254,1.088656425,-4.96761179,2.899761915,-1.024414063,-0.824707031,0.187988281
145,4222839425,-0.621754,-0.286836,0.695249,-0.218597,9.789361,0.510017931,-1.325897098,1.064655662,-4.91748476,2.639623642,-1.025878906,-0.828613281,0.188476563
146,4222847758,-0.62144,-0.286824,0.695512,-0.218671,9.793496132,0.488697678,-1.327533245,0.698756397,-5.067995071,2.606274128,-1.0234375,-0.823242188,0.187988281
147,4222856091,-0.621119,-0.286817,0.695777,-0.218748,9.811976433,0.482537597,-1.344198227,0.778467894,-5.144990921,2.621463299,-1.02734375,-0.823242188,0.188476563
148,4222864424,-0.620815,-0.286814,0.696026,-0.218822,9.842403412,0.454425722,-1.368349671,0.774010956,-4.882316589,2.437297106,-1.025878906,-0.823242188,0.19140625
149,4222872757,-0.620517,-0.286831,0.696262,-0.218897,9.825169563,0.429811418,-1.423748851,0.969242573,-4.760571957,2.197061062,-1.0234375,-0.826660156,0.190917969
150,4222881090,-0.620222,-0.286861,0.696489,-0.218969,9.783457756,0.438741952,-1.425776482,1.070316434,-4.718027115,1.991634965,-1.02734375,-0.82421875,0.193359375
151,4222889423,-0.619925,-0.286897,0.696715,-0.219043,9.733315468,0.471114784,-1.457585692,1.118906498,-4.733727932,1.950216413,-1.024414063,-0.82421875,0.193359375
152,4222897756,-0.619634,-0.286915,0.69694,-0.219127,9.765372276,0.523584843,-1.478371501,1.074645281,-4.576943398,2.202440023,-1.023925781,-0.824707031,0.191894531
153,4222906089,-0.619359,-0.286917,0.697163,-0.219193,9.802819252,0.547938347,-1.438212514,0.69196862,-4.417751312,2.136790752,-1.026855469,-0.823242188,0.194824219
154,4222914422,-0.619118,-0.286904,0.69737,-0.219236,9.822997093,0.56030798,-1.461432338,0.272484213,-4.011176586,1.906518817,-1.026367188,-0.824707031,0.194824219
155,4222922755,-0.618889,-0.286881,0.69757,-0.219273,9.857936859,0.552109957,-1.458823562,0.105556272,-3.815970421,1.900063872,-1.025878906,-0.823730469,0.196777344
156,4222931088,-0.618667,-0.286875,0.697746,-0.219347,9.814479828,0.532523811,-1.49282515,0.641790271,-3.466053963,1.92944324,-1.02734375,-0.823242188,0.1953125
157,4222939421,-0.618438,-0.286912,0.697895,-0.219472,9.808450699,0.501019239,-1.50869894,1.611570716,-3.227508783,1.870402455,-1.026367188,-0.822753906,0.194335938
158,4222947754,-0.618216,-0.286964,0.698023,-0.219621,9.759634972,0.454042435,-1.514830709,2.010743141,-2.933073044,1.833671689,-1.027832031,-0.822753906,0.196289063
159,4222956087,-0.618,-0.287038,0.698137,-0.21977,9.757474899,0.457338721,-1.495313406,2.208100557,-2.823008299,1.540004373,-1.028320313,-0.824707031,0.199707031
160,4222964420,-0.6178,-0.287116,0.698229,-0.219938,9.751141548,0.464943558,-1.487816572,2.424489498,-2.41902113,1.536162376,-1.028808594,-0.822265625,0.197753906
161,4222972753,-0.617605,-0.287185,0.698322,-0.220098,9.748057365,0.437640786,-1.505903125,2.259585619,-2.371301889,1.536060095,-1.027832031,-0.821777344,0.200683594
162,4222981086,-0.617434,-0.287213,0.698427,-0.22021,9.775592804,0.475257784,-1.497187495,1.308579803,-2.320662498,1.501762509,-1.025390625,-0.821289063,0.201660156
163,4222989419,-0.617299,-0.28718,0.698544,-0.220259,9.778218269,0.535002828,-1.515333414,0.013678001,-2.136777878,1.489442229,-1.02734375,-0.819335938,0.198242188
164,4222997752,-0.617199,-0.28707,0.698687,-0.220232,9.806006432,0.54764241,-1.532726765,-1.579027891,-2.095999956,1.570972204,-1.026367188,-0.822265625,0.200195313
165,4223006085,-0.617138,-0.286927,0.698823,-0.220156,9.830327988,0.549338639,-1.532140255,-2.480777025,-1.751667738,1.333016038,-1.026367188,-0.8203125,0.198730469
166,4223014418,-0.61711,-0.286767,0.698942,-0.220067,9.797016144,0.502122343,-1.570334315,-2.8171947,-1.289407849,1.222490668,-1.027832031,-0.822265625,0.200683594
167,4223022751,-0.617088,-0.28663,0.699038,-0.220003,9.76828289,0.468486816,-1.544532895,-2.337414265,-1.000325561,1.102462292,-1.026855469,-0.821777344,0.19921875
168,4223031084,-0.617057,-0.286526,0.699113,-0.219984,9.747750282,0.471864015,-1.544971108,-1.534766555,-0.836061478,1.114270449,-1.025878906,-0.820800781,0.200195313
169,4223039417,-0.617028,-0.286462,0.699156,-0.220014,9.758745193,0.515083373,-1.533233404,-0.626562595,-0.472211212,1.013401628,-1.026855469,-0.822753906,0.197265625
170,4223047750,-0.616996,-0.286423,0.699174,-0.220094,9.766649246,0.518695533,-1.502304435,0.151533812,-0.175265387,1.098389626,-1.028320313,-0.819824219,0.196777344
171,4223056083,-0.61697,-0.28641,0.69917,-0.220198,9.790230751,0.523924291,-1.489893794,0.6541363,0.09436284,0.953643501,-1.02734375,-0.821777344,0.19921875
172,4223064416,-0.616946,-0.286401,0.699159,-0.220315,9.808534622,0.532915473,-1.422921658,0.814481437,0.204196692,0.993320107,-1.02734375,-0.821289063,0.198242188
173,4223072749,-0.616924,-0.286398,0.699142,-0.220434,9.792098999,0.522357762,-1.386843443,0.907204926,0.273585647,0.9233675,-1.028320313,-0.822753906,0.199707031
174,4223081082,-0.616906,-0.286397,0.699122,-0.220546,9.80158329,0.499218464,-1.354690552,0.848420382,0.295870036,0.820859432,-1.031738281,-0.822265625,0.199707031
175,4223089415,-0.616879,-0.286392,0.699115,-0.220649,9.828356743,0.494840831,-1.347173572,0.709744811,0.086422421,0.856898546,-1.030273438,-0.8203125,0.200683594
176,4223097748,-0.61684,-0.286394,0.699111,-0.22077,9.833442688,0.484097272,-1.337867737,1.001747012,-0.025627043,0.994113982,-1.028320313,-0.8203125,0.200683594
177,4223106081,-0.616799,-0.286411,0.699105,-0.220882,9.81864357,0.475435168,-1.322188735,1.033406258,-0.085794874,0.75971812,-1.029785156,-0.816894531,0.201171875
178,4223114414,-0.616743,-0.286442,0.699107,-0.22099,9.78275013,0.469133496,-1.331251383,1.159633279,-0.369242013,0.691763639,-1.028320313,-0.8203125,0.199707031
179,4223122747,-0.616679,-0.286472,0.69912,-0.221091,9.781842232,0.477080315,-1.321380496,1.068395376,-0.553818226,0.690611005,-1.02734375,-0.819335938,0.201660156
180,4223131080,-0.616599,-0.286499,0.699151,-0.221181,9.766220093,0.480814099,-1.317932725,0.970036626,-0.908703327,0.75982064,-1.026855469,-0.822265625,0.198242188
181,4223139413,-0.616515,-0.286526,0.699189,-0.221259,9.748531342,0.485241473,-1.3254143,0.82298547,-1.034110665,0.686128557,-1.031738281,-0.817871094,0.204101563
182,4223147746,-0.616421,-0.286547,0.699238,-0.221339,9.742913246,0.473160326,-1.329043031,0.81522423,-1.226832151,0.844270766,-1.028320313,-0.816894531,0.203613281
183,4223156079,-0.616323,-0.286561,0.699301,-0.221396,9.764139175,0.457966655,-1.348139524,0.494764566,-1.421961427,0.781080425,-1.02734375,-0.820800781,0.196777344
184,4223164412,-0.616222,-0.28656,0.699378,-0.221434,9.778321266,0.489537209,-1.412044287,0.167619556,-1.62441659,0.818323612,-1.028320313,-0.818847656,0.202636719
185,4223172745,-0.616137,-0.286545,0.69945,-0.221464,9.775984764,0.488653541,-1.396621346,-0.084795922,-1.4026227,0.829593897,-1.027832031,-0.816894531,0.204589844
186,4223181078,-0.616075,-0.28649,0.699532,-0.221448,9.788402557,0.494529545,-1.426416755,-0.978783965,-1.336153746,0.78748399,-1.028320313,-0.819335938,0.203613281
187,4223189411,-0.616027,-0.28642,0.699613,-0.221416,9.783956528,0.494028747,-1.486727595,-1.322629571,-1.184901834,0.756081045,-1.02734375,-0.818359375,0.202636719
188,4223197744,-0.615985,-0.286352,0.699686,-0.221391,9.760736465,0.446058005,-1.494201303,-1.233824849,-1.066435814,0.740200162,-1.027832031,-0.818847656,0.204101563
189,4223206077,-0.615943,-0.286299,0.69975,-0.221374,9.738445282,0.44356209,-1.493449211,-0.993076622,-0.995535612,0.632287383,-1.030761719,-0.8203125,0.202636719
190,4223214410,-0.615905,-0.286237,0.699813,-0.221358,9.710492134,0.459198207,-1.523147821,-1.076066732,-0.91205889,0.698909998,-1.028808594,-0.818847656,0.201171875
191,4223222743,-0.615867,-0.286173,0.69988,-0.221334,9.710680962,0.473926753,-1.478968382,-1.186771512,-0.972072959,0.681594789,-1.028320313,-0.818359375,0.201171875
192,4223231076,-0.615836,-0.286089,0.699958,-0.221283,9.742473602,0.511002898,-1.459143162,-1.674440861,-1.051707745,0.659464061,-1.03125,-0.818847656,0.200195313
193,4223239409,-0.615815,-0.285984,0.700044,-0.221206,9.810489655,0.485669941,-1.424364805,-2.168693304,-1.059750676,0.649807572,-1.026855469,-0.817382813,0.203613281
194,4223247742,-0.615797,-0.285869,0.700137,-0.221113,9.823181152,0.503777802,-1.419988513,-2.438436985,-1.119559765,0.61658591,-1.029785156,-0.818359375,0.201171875
195,4223256075,-0.615777,-0.285762,0.700222,-0.221036,9.843359947,0.485012829,-1.438060045,-2.190772772,-1.027630329,0.666328728,-1.030273438,-0.817871094,0.202148438
196,4223264408,-0.615748,-0.285688,0.7003,-0.220966,9.85792923,0.513108373,-1.430755854,-1.785990834,-1.136362553,0.391462356,-1.030761719,-0.819824219,0.202636719
197,4223272741,-0.615703,-0.285643,0.700371,-0.220924,9.866018295,0.505686402,-1.423503757,-1.190664887,-1.200987339,0.383214533,-1.028320313,-0.8203125,0.203125
198,4223281074,-0.61564,-0.285624,0.700432,-0.220929,9.802034378,0.476386487,-1.41244328,-0.40366751,-1.188487768,0.537207425,-1.026855469,-0.817871094,0.202636719
199,4223289407,-0.61556,-0.285627,0.700492,-0.220958,9.780266762,0.464004934,-1.398623824,0.07809779,-1.311435938,0.578804851,-1.029785156,-0.815917969,0.203613281
200,4223297740,-0.615468,-0.285655,0.700549,-0.220997,9.773916245,0.461479962,-1.414181471,0.440590471,-1.44539845,0.452475429,-1.030273438,-0.819335938,0.199707031
201,4223306073,-0.615376,-0.285692,0.7006,-0.221045,9.812605858,0.427632719,-1.442828536,0.633926749,-1.378135562,0.404423147,-1.028808594,-0.819335938,0.201660156
202,4223314406,-0.61528,-0.285744,0.700646,-0.2211,9.817527771,0.464856118,-1.453822494,0.844065905,-1.403621554,0.327196181,-1.027832031,-0.815917969,0.201171875
203,4223322739,-0.615185,-0.285774,0.700704,-0.22114,9.803657532,0.468403935,-1.460589051,0.472761899,-1.484716177,0.448377162,-1.026855469,-0.815429688,0.201171875
204,4223331072,-0.615104,-0.285793,0.700759,-0.221169,9.769953728,0.479562342,-1.454616427,0.234831318,-1.332900643,0.42020151,-1.03125,-0.817382813,0.201171875
205,4223339405,-0.615028,-0.2858,0.700815,-0.221193,9.743924141,0.458211124,-1.493835449,0.068005785,-1.267200232,0.458674043,-1.03125,-0.817871094,0.202636719
206,4223347738,-0.614963,-0.285798,0.700871,-0.221201,9.776082039,0.429142207,-1.494894028,-0.208640754,-1.216817021,0.383906126,-1.025878906,-0.814941406,0.206542969
207,4223356071,-0.614908,-0.285795,0.700923,-0.221189,9.812198639,0.450021118,-1.52490747,-0.440219045,-1.142510056,0.194053441,-1.030761719,-0.816894531,0.204101563
208,4223364404,-0.614861,-0.285784,0.700971,-0.221181,9.845373154,0.466186553,-1.524435401,-0.50194931,-1.001554966,0.256808311,-1.030761719,-0.816894531,0.204101563
209,4223372737,-0.614824,-0.285793,0.701002,-0.221178,9.834229469,0.437203228,-1.529120445,-0.257051647,-0.791851223,0.001383169,-1.028320313,-0.817382813,0.202636719
210,4223381070,-0.614791,-0.285827,0.701011,-0.221194,9.796870232,0.435951471,-1.523641348,0.195282906,-0.586194515,-0.165429533,-1.028320313,-0.817382813,0.203125
211,4223389403,-0.614754,-0.285866,0.701018,-0.221226,9.749382019,0.414500087,-1.533848524,0.40245083,-0.543905497,-0.081773438,-1.030273438,-0.817382813,0.205078125
212,4223397736,-0.614718,-0.285931,0.701007,-0.221277,9.727544785,0.402769208,-1.513605952,0.855822742,-0.397494495,-0.25287655,-1.031738281,-0.815917969,0.206542969
213,4223406069,-0.614686,-0.285998,0.700991,-0.221329,9.758416176,0.422589958,-1.508541703,0.88561213,-0.315528929,-0.283921003,-1.032226563,-0.81640625,0.202636719
214,4223414402,-0.614644,-0.286075,0.700978,-0.22139,9.76962471,0.44742462,-1.474057913,1.094726682,-0.428410858,-0.263455212,-1.028320313,-0.818847656,0.205566406
215,4223422735,-0.614603,-0.286147,0.700965,-0.221449,9.782378197,0.478231937,-1.477476954,1.02400589,-0.415629387,-0.242425904,-1.030273438,-0.817382813,0.205566406
216,4223431068,-0.614574,-0.286206,0.700953,-0.221492,9.787893295,0.477273434,-1.476125002,0.706440628,-0.340349168,-0.282512218,-1.028808594,-0.81640625,0.202148438
217,4223439401,-0.614547,-0.286265,0.700946,-0.221512,9.770261765,0.464312166,-1.459759712,0.460006028,-0.42633611,-0.460121304,-1.032714844,-0.816894531,0.203125
218,4223447734,-0.614539,-0.286304,0.700938,-0.221511,9.769618034,0.470120609,-1.462785006,0.020670688,-0.286866605,-0.4968521,-1.028320313,-0.818847656,0.204101563
219,4223456067,-0.614532,-0.286328,0.700938,-0.221498,9.757165909,0.472623974,-1.459323406,-0.261021852,-0.33082065,-0.439553112,-1.029296875,-0.818847656,0.206542969
220,4223464400,-0.614516,-0.286373,0.700926,-0.221522,9.779231071,0.468940377,-1.465782046,0.360110521,-0.236995697,-0.349442184,-1.028808594,-0.817871094,0.20703125
221,4223472733,-0.614505,-0.286417,0.700913,-0.221536,9.749939919,0.431323588,-1.47323525,0.225917548,-0.221601546,-0.438733429,-1.030273438,-0.818359375,0.205078125
222,4223481066,-0.614492,-0.286466,0.700905,-0.221534,9.758751869,0.454656094,-1.466197133,0.120207593,-0.348904252,-0.600179911,-1.030273438,-0.815917969,0.205566406
223,4223489399,-0.614477,-0.286501,0.700906,-0.221528,9.759532928,0.469026268,-1.428587317,-0.06602069,-0.430383176,-0.452846825,-1.03125,-0.815917969,0.203613281
224,4223497732,-0.614466,-0.286516,0.700924,-0.221481,9.755447388,0.481951147,-1.41815877,-0.698794782,-0.625999093,-0.543137074,-1.028320313,-0.818847656,0.203125
225,4223506065,-0.614454,-0.286512,0.700956,-0.22142,9.787227631,0.493481547,-1.429331303,-1.017359018,-0.760064065,-0.437222213,-1.02734375,-0.817871094,0.207519531
226,4223514398,-0.614453,-0.2865,0.700985,-0.221347,9.790660858,0.469720036,-1.422035217,-1.250986457,-0.644671857,-0.498798788,-1.029785156,-0.816894531,0.205566406
227,4223522731,-0.614455,-0.286474,0.70102,-0.221262,9.800402641,0.45980373,-1.444905996,-1.509664774,-0.674409986,-0.450234234,-1.027832031,-0.820800781,0.205078125
228,4223531064,-0.614451,-0.286456,0.701061,-0.22117,9.810403824,0.483965755,-1.451882005,-1.507743597,-0.835933387,-0.548823357,-1.029296875,-0.821777344,0.203125
229,4223539397,-0.614446,-0.286438,0.7011,-0.22108,9.801009178,0.46357131,-1.450590014,-1.474316835,-0.816210449,-0.535503983,-1.032226563,-0.815917969,0.206542969
230,4223547730,-0.61444,-0.286436,0.701133,-0.220996,9.771856308,0.44454205,-1.461168408,-1.261513948,-0.814443052,-0.655045688,-1.030761719,-0.815429688,0.205078125
231,4223556063,-0.614425,-0.286448,0.701163,-0.220926,9.757872581,0.455357134,-1.480273724,-0.959547698,-0.836701751,-0.658964574,-1.029296875,-0.81640625,0.208984375
232,4223564396,-0.614403,-0.286473,0.701189,-0.220872,9.762887001,0.447217196,-1.477698684,-0.659579337,-0.875635386,-0.638934255,-1.029785156,-0.817382813,0.208007813
233,4223572729,-0.614381,-0.286509,0.701208,-0.220829,9.734760284,0.472667187,-1.497769117,-0.440500796,-0.786805272,-0.687268317,-1.028808594,-0.819335938,0.207519531
234,4223581062,-0.614361,-0.286551,0.701225,-0.220772,9.731564522,0.484984219,-1.494486451,-0.518598616,-0.830912948,-0.871716321,-1.030273438,-0.818847656,0.206054688
235,4223589395,-0.614339,-0.286575,0.701255,-0.220709,9.729811668,0.497930855,-1.485108972,-0.773767591,-0.918334305,-0.690444469,-1.029785156,-0.81640625,0.207519531
236,4223597728,-0.61432,-0.286572,0.701296,-0.220634,9.780247688,0.520634353,-1.505050778,-1.157699585,-0.968359053,-0.508122444,-1.027832031,-0.818847656,0.20703125
237,4223606061,-0.614322,-0.286549,0.701333,-0.220544,9.80753231,0.487380147,-1.49524498,-1.522446156,-0.715059876,-0.5170874,-1.032226563,-0.818359375,0.204589844
238,4223614394,-0.614327,-0.286516,0.701375,-0.220439,9.7736063,0.468984514,-1.490118861,-1.802435279,-0.773127198,-0.520545244,-1.028320313,-0.8203125,0.205566406
239,4223622727,-0.614338,-0.286485,0.701414,-0.220323,9.736010551,0.48375991,-1.509069085,-1.913037658,-0.725151777,-0.675767541,-1.027832031,-0.81640625,0.208007813
240,4223631060,-0.61435,-0.28644,0.701462,-0.220194,9.715148926,0.464093626,-1.504844785,-2.177863359,-0.803070366,-0.633785844,-1.030273438,-0.819824219,0.204101563
241,4223639393,-0.614364,-0.286401,0.701505,-0.22007,9.78331089,0.482576311,-1.494731545,-2.06718421,-0.741570592,-0.651587725,-1.028808594,-0.817382813,0.206054688
242,4223647726,-0.614379,-0.286342,0.701554,-0.21995,9.816828728,0.517665505,-1.481626034,-2.231909275,-0.700357258,-0.415808707,-1.02734375,-0.821289063,0.204101563
243,4223656059,-0.614406,-0.286295,0.701593,-0.219811,9.819532394,0.500723481,-1.466729164,-2.319023132,-0.618980885,-0.763265848,-1.029785156,-0.818359375,0.206542969
244,4223664392,-0.614438,-0.286268,0.701618,-0.219674,9.778256416,0.462502956,-1.489050865,-2.110676765,-0.509889722,-1.009085536,-1.029785156,-0.816894531,0.206542969
245,4223672725,-0.614459,-0.286244,0.701651,-0.219546,9.761122704,0.495843023,-1.485437632,-1.983579159,-0.643109322,-0.897125602,-1.027832031,-0.819335938,0.204101563
246,4223681058,-0.614482,-0.28623,0.70167,-0.219438,9.772047043,0.489202112,-1.512270927,-1.660609126,-0.466934681,-0.879016459,-1.028808594,-0.8203125,0.209960938
247,4223689391,-0.614496,-0.286227,0.701687,-0.219347,9.775125504,0.49576354,-1.499350309,-1.367761731,-0.495187163,-0.830861747,-1.029296875,-0.817871094,0.206542969
248,4223697724,-0.614532,-0.286205,0.701699,-0.219235,9.790043831,0.515138686,-1.518869042,-1.80023253,-0.277338147,-0.907294691,-1.030273438,-0.817871094,0.207519531
249,4223706057,-0.614565,-0.286175,0.70172,-0.219113,9.806023598,0.514272213,-1.486947894,-1.954455614,-0.381767333,-0.882371843,-1.027832031,-0.819824219,0.205078125
250,4223714390,-0.614607,-0.286143,0.701735,-0.218992,9.801643372,0.493670255,-1.536079764,-2.017005682,-0.250750542,-0.902094901,-1.032226563,-0.819335938,0.20703125
251,4223722723,-0.614653,-0.286127,0.701733,-0.218888,9.799661636,0.452288419,-1.556026578,-1.659533501,-0.040739439,-0.981755316,-1.026855469,-0.819335938,0.208496094
252,4223731056,-0.614706,-0.28614,0.701702,-0.218822,9.817828178,0.452381551,-1.535286188,-0.996098995,0.331012726,-1.079652667,-1.030273438,-0.8203125,0.205566406
253,4223739389,-0.614765,-0.286149,0.701672,-0.218742,9.80221653,0.467472345,-1.519184947,-1.190229654,0.344562709,-1.17913866,-1.030273438,-0.821289063,0.20703125
254,4223747722,-0.614834,-0.286151,0.701636,-0.21866,9.804409981,0.494598866,-1.556351066,-1.293070674,0.494508415,-1.179727554,-1.024414063,-0.819824219,0.204589844
255,4223756055,-0.614912,-0.286161,0.701585,-0.218593,9.799654007,0.472411007,-1.561377048,-1.033598423,0.751624048,-1.209183931,-1.02734375,-0.821777344,0.204101563
256,4223764388,-0.614999,-0.286172,0.701523,-0.218533,9.773694038,0.476071388,-1.562736869,-0.995433152,0.953208089,-1.239613652,-1.025390625,-0.822265625,0.208007813
257,4223772721,-0.615095,-0.286178,0.70145,-0.218488,9.767498016,0.484378248,-1.584989309,-0.941617668,1.198157072,-1.124093413,-1.028808594,-0.822265625,0.208984375
258,4223781054,-0.615209,-0.286185,0.701357,-0.218455,9.794607162,0.505178928,-1.631935596,-0.779940724,1.603604913,-1.168278217,-1.025878906,-0.819335938,0.205078125
259,4223789387,-0.615353,-0.28619,0.701243,-0.218411,9.804320335,0.507332861,-1.668025374,-0.971253335,2.018939495,-1.416351914,-1.026367188,-0.821289063,0.208496094
260,4223797720,-0.615534,-0.28619,0.701091,-0.21839,9.816687584,0.511390924,-1.723530054,-0.812521935,2.816489935,-1.437432528,-1.030273438,-0.819335938,0.204101563
261,4223806053,-0.615753,-0.286183,0.700905,-0.218378,9.80380249,0.529530227,-1.786130548,-0.832040012,3.517858982,-1.527440786,-1.033203125,-0.82421875,0.205566406
262,4223814386,-0.616031,-0.286153,0.700681,-0.218352,9.823628426,0.508500397,-1.835116863,-1.287717223,4.414562225,-1.773107052,-1.029785156,-0.8203125,0.202636719
263,4223822719,-0.616341,-0.286142,0.700408,-0.218369,9.857289314,0.439299881,-1.870309114,-0.784295082,5.260447025,-1.843955994,-1.029296875,-0.822265625,0.200195313
264,4223831052,-0.616693,-0.286149,0.700068,-0.218455,9.89281559,0.398128718,-1.874137521,0.157860532,6.44072485,-1.856071472,-1.025878906,-0.819335938,0.201660156
265,4223839385,-0.617091,-0.286174,0.69967,-0.218572,9.874806404,0.380976439,-1.812688828,0.634746432,7.452667713,-2.119693518,-1.027832031,-0.822265625,0.200683594
266,4223847718,-0.617537,-0.286224,0.699215,-0.218705,9.848439217,0.443271577,-1.799325466,0.953310668,8.380926132,-2.605416298,-1.026855469,-0.824707031,0.198730469
267,4223856051,-0.618038,-0.286251,0.69872,-0.218836,9.828632355,0.51095432,-1.81788218,0.633081377,9.325323105,-2.717913389,-1.025390625,-0.817871094,0.200683594
268,4223864384,-0.618617,-0.28624,0.69818,-0.218936,9.822440147,0.537798345,-1.774943829,-0.14724344,10.42991257,-3.024029493,-1.026367188,-0.822753906,0.195800781
269,4223872717,-0.619269,-0.286187,0.697606,-0.218991,9.815364838,0.544461787,-1.704157114,-1.033675432,11.38875675,-3.371230602,-1.024902344,-0.823730469,0.196289063
270,4223881050,-0.619982,-0.28607,0.697024,-0.218981,9.804881096,0.545456052,-1.634078741,-2.49768281,11.96046543,-3.51402998,-1.02734375,-0.821289063,0.196289063
271,4223889383,-0.620738,-0.285875,0.696442,-0.218947,9.822118759,0.484522551,-1.571462035,-3.538414717,12.52313232,-3.104304552,-1.026855469,-0.827148438,0.194824219
272,4223897716,-0.621509,-0.285664,0.695844,-0.218934,9.816979408,0.391870171,-1.473394036,-3.525198221,12.93473053,-2.874212265,-1.026367188,-0.825195313,0.195800781
273,4223906049,-0.622286,-0.285469,0.69523,-0.218933,9.807783127,0.329862088,-1.324694157,-3.23365736,13.12181759,-3.004281759,-1.026367188,-0.826171875,0.187988281
274,4223914382,-0.623032,-0.285321,0.694615,-0.218958,9.764464378,0.386348218,-1.198270679,-2.466689587,12.80207253,-3.155763626,-1.023925781,-0.824707031,0.186523438
275,4223922715,-0.623735,-0.285238,0.693999,-0.219015,9.75561142,0.489742845,-1.070909858,-1.393709302,12.32862091,-3.366851091,-1.022949219,-0.825683594,0.183105469
276,4223931048,-0.624382,-0.285226,0.693394,-0.219106,9.748825073,0.542286813,-0.902031541,-0.306692064,11.61034393,-3.548096895,-1.025390625,-0.822753906,0.182128906
277,4223939381,-0.624971,-0.285217,0.692843,-0.219179,9.723824501,0.627265215,-0.725957096,-0.399210691,10.52373695,-3.329530478,-1.024902344,-0.828125,0.181152344
278,4223947714,-0.625499,-0.28518,0.692372,-0.219211,9.712566376,0.691915751,-0.571034431,-1.019792438,9.171229362,-2.931946278,-1.0234375,-0.824707031,0.183105469
279,4223956047,-0.62595,-0.285128,0.691985,-0.219211,9.70154953,0.737962842,-0.510373712,-1.438482523,7.643723011,-2.488768339,-1.025878906,-0.826660156,0.182128906
280,4223964380,-0.626311,-0.285085,0.691676,-0.219214,9.693827629,0.748119235,-0.473128408,-1.190844178,6.097391129,-1.985346317,-1.021484375,-0.826171875,0.179199219
281,4223972713,-0.626585,-0.28506,0.691449,-0.219178,9.683588028,0.731280208,-0.453190625,-1.296451807,4.360132217,-1.90368855,-1.024414063,-0.825195313,0.180175781
282,4223981046,-0.626783,-0.285037,0.691299,-0.219116,9.673402786,0.727980494,-0.444494247,-1.476442814,2.851555824,-1.607818246,-1.023925781,-0.826171875,0.180664063
283,4223989379,-0.6269,-0.284988,0.69125,-0.218997,9.690523148,0.723106682,-0.456552058,-2.283572912,1.06939435,-1.212001443,-1.024414063,-0.826171875,0.174316406
284,4223997712,-0.626946,-0.28493,0.691278,-0.218853,9.72889328,0.708105087,-0.622429609,-2.505290031,-0.341501772,-0.836010218,-1.023925781,-0.826660156,0.179199219
285,4224006045,-0.626937,-0.284885,0.691347,-0.218721,9.784640312,0.63526392,-0.739803076,-2.32629776,-1.202165723,-0.506662428,-1.02734375,-0.828613281,0.178710938
286,4224014378,-0.626898,-0.284838,0.691456,-0.218548,9.813570976,0.630635738,-0.914156258,-2.566021204,-1.999536872,-0.616316974,-1.024902344,-0.825195313,0.17578125
287,4224022711,-0.626857,-0.284801,0.69158,-0.218325,9.806954384,0.649656117,-1.090701938,-3.039320946,-2.359109402,-1.072070837,-1.023925781,-0.826660156,0.174316406
288,4224031044,-0.62681,-0.284768,0.691701,-0.218117,9.863717079,0.607483149,-1.289349914,-2.79629302,-2.346584082,-0.98226732,-1.021484375,-0.829101563,0.176269531
289,4224039377,-0.626774,-0.284743,0.691791,-0.217968,9.924449921,0.512397647,-1.387289405,-2.269510984,-1.784735799,-0.68565464,-1.022949219,-0.825195313,0.180175781
290,4224047710,-0.626753,-0.284724,0.691861,-0.21783,9.929884911,0.449350744,-1.419281483,-1.962985277,-1.428006291,-0.787086964,-1.022460938,-0.825195313,0.178710938
291,4224056043,-0.626754,-0.284726,0.691903,-0.217692,9.877063751,0.449130952,-1.437216401,-1.629872084,-1.032163978,-1.17386198,-1.021972656,-0.827636719,0.178222656
292,4224064376,-0.626788,-0.284735,0.691912,-0.217553,9.831157684,0.479596913,-1.457141399,-1.771621346,-0.467677474,-1.466478825,-1.022460938,-0.827636719,0.178222656
293,4224072709,-0.626852,-0.284731,0.691905,-0.217397,9.764275551,0.576189339,-1.422446132,-2.206474304,-0.069145627,-1.622392893,-1.021972656,-0.828125,0.178222656
294,4224081042,-0.626956,-0.284646,0.691912,-0.217186,9.765098572,0.608248472,-1.42478621,-3.530217409,0.198023617,-1.408616185,-1.020996094,-0.827148438,0.177734375
295,4224089375,-0.62709,-0.284499,0.691924,-0.216951,9.793632507,0.609549046,-1.394071817,-4.421516418,0.564512134,-1.094918966,-1.020019531,-0.828125,0.177734375
296,4224097708,-0.627252,-0.284356,0.691904,-0.216734,9.836885452,0.550708532,-1.387501955,-4.234865665,1.145699143,-1.184414983,-1.020996094,-0.826171875,0.177246094
297,4224106041,-0.627435,-0.284254,0.691841,-0.216544,9.831809998,0.505474985,-1.374343872,-3.547636032,1.705754519,-1.574596763,-1.024414063,-0.828125,0.176269531
298,4224114374,-0.627631,-0.284217,0.691728,-0.216383,9.829657555,0.555683315,-1.378381848,-2.63028717,2.170165777,-2.18229413,-1.020019531,-0.828613281,0.174804688
299,4224122707,-0.627804,-0.284241,0.691591,-0.216286,9.816512108,0.565515041,-1.354387879,-1.408744574,2.23965764,-2.213620901,-1.020996094,-0.828125,0.177246094
300,4224131040,-0.627962,-0.284296,0.691427,-0.216282,9.783465385,0.557515621,-1.278324246,-0.046886858,2.588087797,-1.788040042,-1.020507813,-0.829589844,0.172363281
301,4224139373,-0.62811,-0.284343,0.69127,-0.21629,9.793935776,0.562947094,-1.169708848,0.104301162,2.531685114,-1.566912413,-1.022460938,-0.829101563,0.175292969
302,4224147706,-0.628253,-0.284393,0.691117,-0.216301,9.779415131,0.61002624,-1.068092823,0.078533247,2.42098093,-1.516554832,-1.020507813,-0.830566406,0.173828125
303,4224156039,-0.62838,-0.28444,0.690984,-0.216291,9.799735069,0.666862726,-1.03459096,-0.103443086,2.047499418,-1.539710045,-1.022460938,-0.828125,0.174804688
304,4224164372,-0.628496,-0.284491,0.690867,-0.216264,9.768773079,0.677560806,-0.950158775,-0.277517438,1.709007502,-1.646188617,-1.018554688,-0.831054688,0.173339844
305,4224172705,-0.62859,-0.284524,0.690785,-0.216207,9.753027916,0.67237097,-0.921468318,-0.706607103,1.143342614,-1.513890982,-1.018554688,-0.827148438,0.174804688
306,4224181038,-0.628667,-0.284515,0.690745,-0.216124,9.760975838,0.649887443,-0.925967216,-1.401956797,0.645325065,-1.134313703,-1.020019531,-0.829101563,0.175292969
307,4224189371,-0.628723,-0.284487,0.690736,-0.216025,9.767466545,0.653818965,-0.950629115,-1.715423703,0.161753893,-0.911905169,-1.01953125,-0.830078125,0.173828125
308,4224197704,-0.628756,-0.284483,0.690741,-0.215918,9.790034294,0.602413714,-1.006821036,-1.552338004,-0.285944551,-1.081932545,-1.021484375,-0.831542969,0.171386719
309,4224206037,-0.628772,-0.284499,0.690749,-0.215825,9.845123291,0.583950937,-1.056067228,-1.18633616,-0.470495075,-1.077501178,-1.022949219,-0.828125,0.172851563
310,4224214370,-0.62878,-0.284517,0.690766,-0.215725,9.862578392,0.631162882,-1.089013457,-1.227037072,-0.663933754,-1.110492229,-1.021972656,-0.830566406,0.174804688
311,4224222703,-0.628792,-0.284517,0.690793,-0.215602,9.840339661,0.639660418,-1.114694118,-1.635020733,-0.729813635,-1.107393146,-1.020019531,-0.830566406,0.172851563
312,4224231036,-0.628801,-0.284503,0.690832,-0.215469,9.847352028,0.627486706,-1.131522536,-1.893724442,-0.876019597,-1.020791173,-1.020019531,-0.831542969,0.174804688
313,4224239369,-0.62881,-0.284485,0.690877,-0.215324,9.79919529,0.584736288,-1.144486785,-2.043388367,-0.962237179,-1.033880234,-1.020019531,-0.830078125,0.17578125
314,4224247702,-0.628821,-0.284464,0.690922,-0.215175,9.811690331,0.592119575,-1.163612366,-2.133985758,-0.941796958,-1.070815802,-1.021972656,-0.830566406,0.176757813
315,4224256035,-0.628833,-0.284447,0.690963,-0.215029,9.761469841,0.620887816,-1.182812929,-2.148509264,-0.909881651,-1.070278049,-1.021972656,-0.831054688,0.172851563
316,4224264368,-0.628839,-0.284428,0.691014,-0.214874,9.762289047,0.638618767,-1.141699076,-2.174021006,-1.078474641,-1.10324347,-1.020507813,-0.833007813,0.174804688
317,4224272701,-0.628841,-0.284408,0.691068,-0.214722,9.81063652,0.612270176,-1.144212723,-1.99907577,-1.116127372,-1.039566517,-1.01953125,-0.829101563,0.171386719
318,4224281034,-0.628851,-0.284388,0.691119,-0.214555,9.784700394,0.615710974,-1.154352903,-2.3038342,-1.092587948,-1.208005786,-1.021484375,-0.831054688,0.172851563
319,4224289367,-0.62886,-0.284357,0.691187,-0.21435,9.784308434,0.644158304,-1.159421921,-2.640404701,-1.331466198,-1.363970637,-1.020507813,-0.83203125,0.173828125
320,4224297700,-0.628863,-0.284327,0.69125,-0.214176,9.797184944,0.633388817,-1.181659341,-2.476755619,-1.260950327,-1.09806931,-1.021484375,-0.830566406,0.175292969
321,4224306033,-0.628867,-0.284283,0.691319,-0.214002,9.817306519,0.630470395,-1.169896722,-2.565406561,-1.247246742,-0.942642212,-1.01953125,-0.831542969,0.172851563
322,4224314366,-0.628879,-0.284225,0.691384,-0.213833,9.824217796,0.653407753,-1.173694253,-2.700060606,-1.086850405,-0.817286193,-1.017089844,-0.83203125,0.172851563
323,4224322699,-0.628898,-0.284165,0.691447,-0.213653,9.826463699,0.65876925,-1.187427998,-2.852465153,-1.02540195,-0.908908427,-1.0234375,-0.831542969,0.171386719
324,4224331032,-0.628924,-0.284112,0.691504,-0.213462,9.84453392,0.639486194,-1.201114058,-2.897367001,-0.977861762,-1.111183882,-1.017578125,-0.831054688,0.174804688
325,4224339365,-0.628951,-0.284044,0.691566,-0.213274,9.833687782,0.608076155,-1.188894391,-2.949082375,-0.952247679,-0.934266448,-1.020019531,-0.834960938,0.171875
326,4224347698,-0.628974,-0.283999,0.691608,-0.213127,9.821864128,0.614334404,-1.19944489,-2.364795923,-0.73339963,-0.871357918,-1.020019531,-0.833984375,0.172851563
327,4224356031,-0.628997,-0.283973,0.691643,-0.212978,9.783952713,0.612855017,-1.216143966,-2.270663261,-0.734116673,-1.071481824,-1.01953125,-0.831542969,0.174804688
328,4224364364,-0.629026,-0.283934,0.691683,-0.212817,9.800263405,0.625838161,-1.242422223,-2.462360382,-0.724665046,-1.062465549,-1.017578125,-0.833496094,0.170898438
329,4224372697,-0.629065,-0.28389,0.691713,-0.212663,9.818546295,0.644414902,-1.244369984,-2.538255453,-0.51949513,-1.01518178,-1.0234375,-0.833984375,0.172363281
330,4224381030,-0.629106,-0.283833,0.691748,-0.212505,9.837821007,0.645458579,-1.241286516,-2.613382101,-0.503230035,-0.923892617,-1.018066406,-0.830078125,0.173339844
331,4224389363,-0.629169,-0.283765,0.691773,-0.212327,9.824868202,0.65888381,-1.24378705,-2.845856905,-0.249546707,-1.106547832,-1.021484375,-0.832519531,0.173339844
332,4224397696,-0.629245,-0.283712,0.691776,-0.212164,9.845162392,0.603196084,-1.332943916,-2.668785572,0.07609988,-1.227421284,-1.016601563,-0.832519531,0.173828125
333,4224406029,-0.629324,-0.283733,0.691724,-0.212073,9.875483513,0.566781223,-1.304494381,-1.408949375,0.634797573,-1.509997606,-1.020996094,-0.834472656,0.173339844
334,4224414362,-0.629385,-0.283789,0.691657,-0.212034,9.830360413,0.574959874,-1.287526131,-0.278823763,0.697680593,-1.420655131,-1.018554688,-0.836425781,0.169921875
335,4224422695,-0.629453,-0.283836,0.691582,-0.212012,9.805975914,0.624407411,-1.259608507,-0.231001958,0.928695261,-1.240228415,-1.022949219,-0.833496094,0.171386719
336,4224431028,-0.629551,-0.283852,0.691505,-0.21195,9.811003685,0.739169717,-1.259338856,-0.968435884,1.165755153,-1.389559507,-1.01953125,-0.835449219,0.169921875
337,4224439361,-0.629668,-0.283848,0.691425,-0.211869,9.789107323,0.728425622,-1.251775742,-1.683534145,1.341494441,-1.39560461,-1.017578125,-0.831542969,0.173339844
338,4224447694,-0.629814,-0.283797,0.691349,-0.211751,9.871539116,0.683106124,-1.228443265,-2.275555849,1.592283368,-1.37488246,-1.020019531,-0.831542969,0.171875
339,4224456027,-0.629989,-0.283713,0.691265,-0.211617,9.833920479,0.725865841,-1.26634407,-2.675548077,1.984949708,-1.324576139,-1.018554688,-0.836425781,0.171875
340,4224464360,-0.630177,-0.283649,0.691165,-0.211473,9.780716896,0.69301486,-1.258982658,-2.725034475,2.1285429,-1.688810468,-1.020019531,-0.8359375,0.170898438
341,4224472693,-0.630361,-0.283574,0.691071,-0.211331,9.801814079,0.601112604,-1.224995852,-2.85172224,2.091274261,-1.532409906,-1.017089844,-0.834960938,0.170898438
342,4224481026,-0.630539,-0.28348,0.690973,-0.211245,9.854649544,0.580726206,-1.189696193,-2.397223711,2.33263731,-0.86436528,-1.018066406,-0.833496094,0.16796875
343,4224489359,-0.630715,-0.283399,0.690859,-0.211204,9.857261658,0.613884747,-1.225087285,-1.668396235,2.608041525,-0.6705935,-1.018066406,-0.833496094,0.171875
344,4224497692,-0.630896,-0.28338,0.690711,-0.211172,9.824808121,0.618757904,-1.220072031,-1.108673811,2.79295063,-1.316840649,-1.016113281,-0.834472656,0.16796875
345,4224506025,-0.631081,-0.283412,0.690531,-0.211162,9.796837807,0.624013841,-1.261263132,-0.277568668,3.052166939,-1.75031054,-1.018554688,-0.831542969,0.16796875
346,4224514358,-0.631286,-0.283444,0.690329,-0.21117,9.829648018,0.610431075,-1.279275894,-0.215659037,3.481256008,-1.731253266,-1.020019531,-0.836914063,0.166992188
347,4224522691,-0.631508,-0.283437,0.690128,-0.21117,9.811285019,0.644162238,-1.304097652,-0.862290382,3.7337358,-1.458282351,-1.01953125,-0.836425781,0.166015625
348,4224531024,-0.63177,-0.283373,0.689925,-0.211136,9.870791435,0.678921938,-1.311350107,-1.674082279,4.156114578,-1.348781586,-1.016601563,-0.834472656,0.168457031
349,4224539357,-0.632065,-0.283298,0.689696,-0.211101,9.854802132,0.649935782,-1.347782612,-1.805278301,4.729514599,-1.464020014,-1.016601563,-0.836425781,0.166015625
350,4224547690,-0.632401,-0.283222,0.689435,-0.211052,9.866690636,0.638668239,-1.35099113,-2.022128582,5.335624218,-1.812091708,-1.016601563,-0.836914063,0.169433594
351,4224556023,-0.632766,-0.283142,0.68915,-0.210995,9.87455368,0.653101325,-1.319309235,-2.162238598,5.82255125,-2.026226997,-1.015625,-0.833984375,0.166015625
352,4224564356,-0.633136,-0.283059,0.688847,-0.210985,9.861746788,0.656258166,-1.276639104,-1.734916091,6.191421509,-1.667345762,-1.018066406,-0.833496094,0.162597656
353,4224572689,-0.633486,-0.283044,0.688504,-0.211074,9.798686028,0.612026453,-1.193895936,-0.167837262,6.543796539,-1.518603921,-1.018554688,-0.834960938,0.161621094
354,4224581022,-0.633806,-0.283107,0.688137,-0.211229,9.771291733,0.6016078,-1.098019361,1.482500672,6.507526875,-1.721007586,-1.017089844,-0.837402344,0.160644531
355,4224589355,-0.634086,-0.283238,0.68776,-0.211438,9.7704916,0.638514817,-0.973390102,2.772279978,6.23104763,-1.822952271,-1.014648438,-0.837402344,0.163085938
356,4224597688,-0.634329,-0.28341,0.687391,-0.211677,9.754303932,0.72725302,-0.833615124,3.528949738,5.798217297,-1.795211911,-1.017089844,-0.83203125,0.158691406
357,4224606021,-0.634535,-0.283586,0.687059,-0.211904,9.749295235,0.774150729,-0.728017092,3.471292257,5.074102879,-1.681510448,-1.018066406,-0.833007813,0.161621094
358,4224614354,-0.634702,-0.283722,0.686785,-0.212111,9.742025375,0.827535272,-0.650004983,2.938797951,4.238797188,-1.160158396,-1.018066406,-0.83984375,0.16015625
359,4224622687,-0.634842,-0.283818,0.686565,-0.212274,9.743153572,0.834044456,-0.565594077,2.141273022,3.457306862,-0.859933853,-1.015625,-0.838378906,0.162109375
360,4224631020,-0.634946,-0.283886,0.686409,-0.212377,9.725552559,0.850422859,-0.596992433,1.267469168,2.405970573,-0.781656802,-1.014648438,-0.834960938,0.162109375
361,4224639353,-0.635003,-0.283944,0.686307,-0.212456,9.731302261,0.787356973,-0.616487086,0.922291875,1.422845244,-0.528536975,-1.016113281,-0.838867188,0.16015625
362,4224647686,-0.63501,-0.283997,0.686258,-0.212525,9.747250557,0.746406138,-0.685571373,0.87044847,0.459801137,-0.217400819,-1.015625,-0.835449219,0.160644531
363,4224656019,-0.634981,-0.28406,0.686242,-0.212578,9.765096664,0.68908304,-0.716285825,0.834716678,-0.240223095,-0.221114874,-1.017089844,-0.839355469,0.16015625
364,4224664352,-0.634939,-0.28411,0.686259,-0.212582,9.790260315,0.701357722,-0.778021872,0.231962487,-0.830503106,-0.359611034,-1.014160156,-0.83984375,0.162109375
365,4224672685,-0.634894,-0.284155,0.68629,-0.212556,9.838636398,0.674720526,-0.886523545,-0.088535592,-1.057675719,-0.526436567,-1.017578125,-0.836425781,0.162109375
366,4224681018,-0.634847,-0.284187,0.686336,-0.212507,9.870599747,0.681744874,-0.955826998,-0.490141094,-1.279341221,-0.52971518,-1.017578125,-0.838378906,0.16015625
367,4224689351,-0.634797,-0.28421,0.68639,-0.21245,9.835094452,0.667388856,-1.02889359,-0.760268927,-1.379441738,-0.454870433,-1.014648438,-0.838378906,0.16015625
368,4224697684,-0.634763,-0.284205,0.686457,-0.212344,9.81436348,0.668595076,-1.068997025,-1.46302104,-1.452698708,-0.631890357,-1.016601563,-0.835449219,0.158691406
369,4224706017,-0.634747,-0.284175,0.686528,-0.212201,9.822452545,0.707913697,-1.086450696,-2.248840094,-1.389098406,-0.735064566,-1.014648438,-0.836425781,0.162109375
370,4224714350,-0.634739,-0.284128,0.686605,-0.212041,9.801170349,0.71084559,-1.071768403,-2.477267981,-1.38297677,-0.74351728,-1.014648438,-0.837402344,0.1640625
371,4224722683,-0.63474,-0.284054,0.68669,-0.211857,9.766480446,0.685423613,-1.045016885,-3.067445993,-1.372218728,-0.684117913,-1.017578125,-0.836914063,0.16015625
372,4224731016,-0.63474,-0.283966,0.686791,-0.21165,9.780287743,0.743569553,-1.060491204,-3.376609325,-1.590964079,-0.701279342,-1.016601563,-0.837890625,0.158691406
373,4224739349,-0.63474,-0.283884,0.686884,-0.211456,9.776782036,0.74673754,-1.016189575,-3.343285084,-1.471063972,-0.651075423,-1.017578125,-0.837890625,0.160644531
374,4224747682,-0.634738,-0.283805,0.686977,-0.211268,9.767184258,0.726727426,-0.984191477,-3.09149766,-1.486381412,-0.644031644,-1.018066406,-0.8359375,0.163574219
375,4224756015,-0.634726,-0.283719,0.687086,-0.211063,9.749197006,0.709454536,-0.949963152,-3.326071978,-1.750002742,-0.619390488,-1.016113281,-0.836425781,0.158691406
376,4224764348,-0.634707,-0.283632,0.6872,-0.210868,9.799688339,0.739921868,-0.989611328,-3.211115837,-1.830047369,-0.498081625,-1.014648438,-0.840332031,0.16015625
377,4224772681,-0.634671,-0.28356,0.687316,-0.210692,9.827716827,0.74081856,-0.998694777,-2.83151269,-1.972334504,-0.406946152,-1.016113281,-0.83203125,0.161621094
378,4224781014,-0.63462,-0.283517,0.687429,-0.210538,9.807303429,0.748311639,-0.97206378,-2.318126678,-2.090032101,-0.465116084,-1.015136719,-0.838867188,0.160644531
379,4224789347,-0.634567,-0.283456,0.687559,-0.210355,9.799921036,0.705270529,-0.989097595,-2.342076063,-2.274582624,-0.523926437,-1.017089844,-0.836914063,0.161132813
380,4224797680,-0.634501,-0.283411,0.687685,-0.210202,9.776827812,0.735604644,-0.989838123,-2.300990582,-2.332470894,-0.347879738,-1.013671875,-0.835449219,0.158691406
381,4224806013,-0.634431,-0.28337,0.687814,-0.210045,9.794393539,0.746788263,-1.060378075,-2.273480892,-2.423759699,-0.386787772,-1.016601563,-0.838867188,0.161621094
382,4224814346,-0.634357,-0.283331,0.687941,-0.209906,9.838403702,0.705368698,-1.086058974,-2.089878321,-2.390845776,-0.253644973,-1.013183594,-0.836914063,0.162109375
383,4224822679,-0.634285,-0.283284,0.688074,-0.209752,9.85406208,0.658634365,-1.105729818,-2.298198938,-2.430522203,-0.292040735,-1.014160156,-0.837402344,0.163085938
384,4224831012,-0.634219,-0.283231,0.688201,-0.209605,9.827159882,0.624505639,-1.137102485,-2.311953545,-2.300401449,-0.204004571,-1.016601563,-0.83984375,0.161621094
385,4224839345,-0.634148,-0.283216,0.688308,-0.209492,9.868641853,0.636708558,-1.124533415,-1.665911436,-2.15242815,-0.324442685,-1.014160156,-0.838867188,0.165527344
386,4224847678,-0.634078,-0.283223,0.688401,-0.209389,9.839413643,0.643628001,-1.137306809,-1.264997363,-2.038111925,-0.529459059,-1.015136719,-0.836425781,0.160644531
387,4224856011,-0.634018,-0.283232,0.68849,-0.209266,9.801976204,0.709523916,-1.112177014,-1.406900167,-1.980710268,-0.744951546,-1.012207031,-0.838378906,0.168457031
388,4224864344,-0.63397,-0.283215,0.68858,-0.209134,9.810271263,0.76811564,-1.121484995,-1.834478855,-1.854380846,-0.622823,-1.014160156,-0.836914063,0.164550781
389,4224872677,-0.633923,-0.283186,0.688678,-0.208995,9.802824974,0.759938776,-1.107698321,-2.281344414,-1.919543743,-0.498209685,-1.014160156,-0.83984375,0.166503906
390,4224881010,-0.633891,-0.283135,0.688774,-0.208846,9.810700417,0.725836515,-1.118107438,-2.369329691,-1.719112277,-0.466063827,-1.014648438,-0.83984375,0.164550781
391,4224889343,-0.633841,-0.283099,0.688871,-0.208724,9.825928688,0.695284784,-1.137003899,-1.925281167,-1.826691866,-0.310021907,-1.017578125,-0.836914063,0.1640625
392,4224897676,-0.633793,-0.283095,0.688948,-0.208622,9.809985161,0.675936878,-1.169421315,-1.395450711,-1.649851203,-0.529894471,-1.016601563,-0.836425781,0.161621094
393,4224906009,-0.633738,-0.283111,0.689014,-0.208549,9.78948307,0.673170805,-1.166989803,-0.819463372,-1.570293427,-0.502794623,-1.015136719,-0.839355469,0.163574219
394,4224914342,-0.633681,-0.283156,0.689059,-0.208512,9.811191559,0.687373757,-1.133282304,-0.228517398,-1.350267291,-0.523977637,-1.016601563,-0.838867188,0.165039063
395,4224922675,-0.633616,-0.283209,0.689101,-0.208499,9.79783535,0.662532091,-1.103733778,0.123460606,-1.316328287,-0.376875043,-1.013671875,-0.838867188,0.1640625
396,4224931008,-0.633545,-0.283269,0.689146,-0.208487,9.792549133,0.736649811,-1.075680256,0.196486771,-1.438687325,-0.410685837,-1.013183594,-0.839355469,0.164550781
397,4224939341,-0.633467,-0.283336,0.689188,-0.208495,9.803055763,0.719604373,-1.057755113,0.542458296,-1.395681143,-0.288429111,-1.016113281,-0.837402344,0.160644531
398,4224947674,-0.633399,-0.283363,0.689248,-0.208462,9.80551815,0.733073413,-1.060766578,-0.334585905,-1.518168449,-0.234844103,-1.016601563,-0.837890625,0.166992188
399,4224956007,-0.633345,-0.283361,0.689319,-0.208396,9.819152832,0.70745039,-1.073273659,-0.833756089,-1.508588672,-0.253235132,-1.017578125,-0.838867188,0.165527344
400,4224964340,-0.633285,-0.283363,0.689393,-0.208328,9.808049202,0.702886999,-1.111633897,-0.973097682,-1.631127238,-0.268168241,-1.016113281,-0.839355469,0.161132813
401,4224972673,-0.633218,-0.283387,0.689455,-0.208297,9.822005272,0.66165942,-1.083462596,-0.262994111,-1.492835879,-0.19250378,-1.014160156,-0.841796875,0.164550781
402,4224981006,-0.633156,-0.283409,0.689513,-0.208264,9.832690239,0.670085669,-1.100958347,-0.396265,-1.435152769,-0.198420659,-1.016601563,-0.839355469,0.161132813
403,4224989339,-0.633105,-0.283423,0.689571,-0.208207,9.81424427,0.715835035,-1.129870176,-0.589754879,-1.37203908,-0.39867273,-1.01171875,-0.839355469,0.165039063
404,4224997672,-0.63306,-0.283442,0.689624,-0.208142,9.784257889,0.712258995,-1.168824315,-0.796487391,-1.344171047,-0.51964879,-1.011230469,-0.83984375,0.165039063
405,4225006005,-0.633019,-0.283457,0.689675,-0.208075,9.799137115,0.663254499,-1.161349893,-0.721668184,-1.272553444,-0.534325719,-1.017089844,-0.840820313,0.165527344
406,4225014338,-0.632978,-0.28347,0.689724,-0.208024,9.801640511,0.677789092,-1.17810905,-0.706120431,-1.196043968,-0.36865288,-1.015625,-0.838378906,0.165039063
407,4225022671,-0.632949,-0.28346,0.68978,-0.207938,9.824964523,0.734096825,-1.169238687,-1.281108737,-1.200756907,-0.477308393,-1.017089844,-0.837402344,0.166015625
408,4225031004,-0.632944,-0.283423,0.689835,-0.207822,9.803219795,0.762920499,-1.160206079,-1.921310902,-1.028219461,-0.531815529,-1.016113281,-0.838867188,0.1640625
409,4225039337,-0.632946,-0.28337,0.689896,-0.207687,9.812829018,0.754912555,-1.163015962,-2.212801218,-1.014336586,-0.57502681,-1.014648438,-0.841796875,0.164550781
410,4225047670,-0.632958,-0.283306,0.689949,-0.20756,9.806613922,0.739559531,-1.17639792,-2.320483446,-0.817465544,-0.442063272,-1.015136719,-0.838867188,0.165527344
411,4225056003,-0.632966,-0.283259,0.689988,-0.207471,9.826956749,0.706236601,-1.171901107,-1.850333929,-0.617341459,-0.291169792,-1.015136719,-0.838867188,0.167480469
412,4225064336,-0.632956,-0.283246,0.690021,-0.207408,9.842605591,0.686694384,-1.125042081,-1.126936674,-0.728276789,-0.387684256,-1.013671875,-0.840820313,0.165527344
413,4225072669,-0.632944,-0.283242,0.690052,-0.207348,9.836009979,0.695778489,-1.113039613,-0.575206101,-0.716289282,-0.491165787,-1.014648438,-0.836425781,0.166992188
414,4225081002,-0.632919,-0.283282,0.690068,-0.207314,9.788314819,0.727336824,-1.108526111,-0.276928276,-0.765904069,-0.654584587,-1.014160156,-0.840820313,0.164550781
415,4225089335,-0.632891,-0.283302,0.690097,-0.207275,9.774202347,0.76393795,-1.089470983,-0.315400869,-0.852966785,-0.473927349,-1.015136719,-0.838867188,0.163574219
416,4225097668,-0.632855,-0.28331,0.690139,-0.207237,9.783930779,0.757464588,-1.066546082,-0.626741886,-1.020637512,-0.256155163,-1.015136719,-0.842285156,0.169433594
417,4225106001,-0.632819,-0.283318,0.690183,-0.207189,9.784996986,0.73735112,-1.052469134,-0.717800438,-1.070764661,-0.339913666,-1.018554688,-0.841308594,0.166503906
418,4225114334,-0.632783,-0.283301,0.690243,-0.207123,9.792713165,0.716590166,-1.058673978,-1.163872361,-1.222913146,-0.17979911,-1.012695313,-0.841308594,0.167480469
419,4225122667,-0.632737,-0.283292,0.690312,-0.207046,9.816616058,0.735052824,-1.11524725,-1.231212139,-1.452698469,-0.30817765,-1.013183594,-0.839355469,0.163085938
420,4225131000,-0.632695,-0.283285,0.690377,-0.206967,9.827080727,0.736185253,-1.145335317,-1.189947724,-1.402801991,-0.347341835,-1.015136719,-0.840820313,0.168945313
421,4225139333,-0.632652,-0.283283,0.690436,-0.206905,9.794096947,0.685445428,-1.146801829,-1.076912045,-1.306287408,-0.268987864,-1.015136719,-0.839355469,0.169921875
422,4225147666,-0.632614,-0.283282,0.690484,-0.206861,9.812005043,0.663905442,-1.216827393,-0.775765538,-1.093279719,-0.196448401,-1.014160156,-0.839355469,0.16796875
423,4225155999,-0.632568,-0.283324,0.690513,-0.206845,9.797735214,0.640000641,-1.235274553,-0.203389838,-1.018101692,-0.394523233,-1.016113281,-0.840820313,0.165039063
424,4225164332,-0.632531,-0.283383,0.690524,-0.206845,9.788637161,0.681072235,-1.230639458,0.272304922,-0.76098609,-0.517702103,-1.016113281,-0.838378906,0.166503906
425,4225172665,-0.632505,-0.283453,0.690517,-0.206848,9.825802803,0.701271892,-1.248578787,0.223970875,-0.526539028,-0.698436081,-1.013671875,-0.837890625,0.165527344
426,4225180998,-0.632495,-0.283481,0.690524,-0.20682,9.794695854,0.736857295,-1.20514679,-0.352131695,-0.491140127,-0.567547381,-1.013671875,-0.839355469,0.168945313
427,4225189331,-0.6325,-0.283473,0.690542,-0.206756,9.783229828,0.753451586,-1.178045154,-1.096430182,-0.475233734,-0.530125022,-1.017089844,-0.838867188,0.170410156
428,4225197664,-0.632526,-0.283434,0.690563,-0.20666,9.808548927,0.730093658,-1.158517838,-1.759429097,-0.339683205,-0.576614857,-1.015625,-0.83984375,0.167480469
429,4225205997,-0.63256,-0.28337,0.690594,-0.206539,9.790709496,0.729131639,-1.150763988,-1.941930413,-0.34834075,-0.577075839,-1.01171875,-0.840820313,0.165527344
430,4225214330,-0.632585,-0.283319,0.690622,-0.20644,9.785956383,0.668385088,-1.14090991,-1.914062381,-0.398595959,-0.445854217,-1.012695313,-0.840332031,0.1640625
431,4225222663,-0.632607,-0.28327,0.690649,-0.206349,9.783605576,0.700374365,-1.152497292,-1.815754533,-0.382971197,-0.400158376,-1.014648438,-0.84375,0.164550781
432,4225230996,-0.632632,-0.283233,0.690667,-0.206261,9.811066628,0.705296397,-1.160709381,-1.654000759,-0.292911559,-0.531098306,-1.017089844,-0.842773438,0.166015625
433,4225239329,-0.632647,-0.283201,0.690691,-0.206179,9.826039314,0.761148334,-1.139405012,-1.517861128,-0.437939346,-0.479434401,-1.017089844,-0.838867188,0.162597656
434,4225247662,-0.63266,-0.283177,0.690709,-0.206112,9.830395699,0.778915882,-1.115328908,-1.30439198,-0.365169317,-0.441397309,-1.016601563,-0.840820313,0.166992188
435,4225255995,-0.632684,-0.283131,0.690731,-0.206025,9.811060905,0.779295087,-1.123618603,-1.306851029,-0.280181289,-0.454204381,-1.017578125,-0.839355469,0.16796875
436,4225264328,-0.632689,-0.283102,0.690761,-0.205952,9.811855316,0.800224304,-1.107310176,-1.40036869,-0.558761716,-0.376695752,-1.014160156,-0.840332031,0.16796875
437,4225272661,-0.632708,-0.283048,0.69079,-0.20587,9.787928581,0.802785099,-1.107438684,-1.602900505,-0.364272863,-0.271318823,-1.015136719,-0.83984375,0.167480469
438,4225280994,-0.632714,-0.283005,0.690823,-0.2058,9.793408394,0.780782878,-1.109398842,-1.510125756,-0.525719345,-0.207513735,-1.015625,-0.842285156,0.165527344
439,4225289327,-0.632714,-0.282959,0.69086,-0.205739,9.796312332,0.747529328,-1.125914693,-1.400650263,-0.574386358,-0.060616083,-1.015625,-0.841796875,0.164550781
440,4225297660,-0.63272,-0.282907,0.690894,-0.205677,9.774116516,0.75214988,-1.140506625,-1.516785383,-0.475925356,-0.045529306,-1.012695313,-0.83984375,0.165527344
441,4225305993,-0.632723,-0.282876,0.690922,-0.205616,9.786369324,0.753180087,-1.127366781,-1.200270176,-0.491780519,-0.266631365,-1.014160156,-0.840820313,0.166992188
442,4225314326,-0.63272,-0.282856,0.690947,-0.205567,9.793451309,0.727358282,-1.157902241,-1.051912665,-0.530919075,-0.247548789,-1.016113281,-0.841308594,0.166503906
443,4225322659,-0.632717,-0.282839,0.69097,-0.205523,9.765711784,0.739453495,-1.160713553,-1.100553989,-0.495853156,-0.215351671,-1.016601563,-0.840332031,0.166503906
444,4225330992,-0.632719,-0.28279,0.691013,-0.205442,9.817051888,0.761556685,-1.169863224,-1.680357814,-0.682427287,-0.202647001,-1.017578125,-0.838867188,0.16796875
445,4225339325,-0.632722,-0.282745,0.691045,-0.205387,9.81658268,0.694598138,-1.133675694,-1.45800066,-0.473927408,-0.036052033,-1.018066406,-0.83984375,0.166503906
446,4225347658,-0.632731,-0.282696,0.691081,-0.205308,9.809789658,0.683981836,-1.108290672,-1.670829296,-0.546799898,-0.21752888,-1.013671875,-0.837890625,0.16796875
447,4225355991,-0.632745,-0.282626,0.691133,-0.205185,9.803059578,0.742290616,-1.109848142,-2.282958508,-0.737011254,-0.366475701,-1.014160156,-0.838867188,0.167480469
448,4225364324,-0.632766,-0.282526,0.691198,-0.205038,9.783610344,0.769050717,-1.126875043,-2.891475677,-0.803556979,-0.247625604,-1.015625,-0.840820313,0.164550781
449,4225372657,-0.632793,-0.282413,0.691265,-0.204884,9.77422142,0.751854062,-1.127452135,-2.914861441,-0.725587249,-0.21135585,-1.012207031,-0.838378906,0.166015625
450,4225380990,-0.632814,-0.2823,0.69134,-0.204724,9.811484337,0.732427001,-1.168926597,-3.152715206,-0.89943099,-0.197011888,-1.015625,-0.842773438,0.166503906
451,4225389323,-0.632822,-0.282209,0.691405,-0.204603,9.805495262,0.729703009,-1.168469191,-2.58541131,-0.857346833,-0.07239864,-1.017089844,-0.843261719,0.165527344
452,4225397656,-0.632822,-0.282145,0.691456,-0.204521,9.834159851,0.729500175,-1.186385989,-1.841010332,-0.720208228,-0.016918201,-1.014160156,-0.840332031,0.166503906
453,4225405989,-0.632819,-0.282109,0.691492,-0.204458,9.81867218,0.744353473,-1.171871662,-1.376086235,-0.633145392,-0.173959062,-1.014160156,-0.841796875,0.165039063
454,4225414322,-0.63281,-0.282093,0.691521,-0.204408,9.800489426,0.78493154,-1.164382696,-1.008086681,-0.624462247,-0.258998334,-1.013671875,-0.840820313,0.167480469
455,4225422655,-0.632786,-0.28208,0.691555,-0.204384,9.78283596,0.748637974,-1.139133215,-0.722129285,-0.72822541,0.00919551,-1.017089844,-0.840820313,0.166015625
456,4225430988,-0.632757,-0.28207,0.691591,-0.204368,9.783601761,0.741670847,-1.128239393,-0.59249568,-0.756503701,0.06239628,-1.016113281,-0.840332031,0.166992188
457,4225439321,-0.632736,-0.282059,0.691624,-0.204336,9.796190262,0.717093945,-1.127044797,-0.753404319,-0.72845608,-0.103033267,-1.017578125,-0.838378906,0.166992188
458,4225447654,-0.63272,-0.282044,0.691658,-0.20429,9.806247711,0.718917966,-1.119341254,-0.955577433,-0.730505109,-0.198881716,-1.014160156,-0.840820313,0.166503906
459,4225455987,-0.632688,-0.282033,0.691704,-0.204247,9.795854568,0.727187037,-1.125878811,-1.075247169,-0.989029765,-0.089457713,-1.014648438,-0.841796875,0.167480469
460,4225464320,-0.632678,-0.281997,0.691748,-0.20418,9.793994904,0.72620666,-1.140835524,-1.400599003,-0.784935355,-0.157437891,-1.013671875,-0.840820313,0.165039063
461,4225472653,-0.632658,-0.281967,0.691801,-0.204102,9.804403305,0.733439565,-1.143243074,-1.371988058,-1.004065156,-0.24516663,-1.014648438,-0.841308594,0.166503906
462,4225480986,-0.632639,-0.281937,0.691856,-0.204019,9.80221653,0.726305962,-1.139501095,-1.493630052,-1.050247669,-0.28804487,-1.016113281,-0.841796875,0.166503906
463,4225489319,-0.63262,-0.281908,0.691911,-0.203931,9.807291985,0.72088027,-1.14823699,-1.546292782,-1.059827328,-0.33087188,-1.014160156,-0.84375,0.165527344
464,4225497652,-0.632604,-0.281874,0.691966,-0.203843,9.800433159,0.732187212,-1.160242319,-1.593525529,-1.010673523,-0.299622506,-1.014160156,-0.840332031,0.166503906
465,4225505985,-0.632579,-0.28186,0.692017,-0.203764,9.803025246,0.72129941,-1.155495286,-1.50574553,-1.115230918,-0.374364823,-1.015625,-0.840820313,0.166015625
466,4225514318,-0.632557,-0.281836,0.692075,-0.203668,9.808129311,0.706634521,-1.167403221,-1.56837225,-1.16110599,-0.437606394,-1.014648438,-0.84375,0.167480469
467,4225522651,-0.632533,-0.281805,0.692138,-0.203572,9.80673027,0.718868911,-1.160230041,-1.61135304,-1.197708845,-0.333894342,-1.015136719,-0.839355469,0.1640625
468,4225530984,-0.632514,-0.281776,0.692199,-0.203467,9.788537979,0.719408989,-1.163319349,-1.69439435,-1.185823679,-0.469419271,-1.016113281,-0.839355469,0.168457031
469,4225539317,-0.632497,-0.281739,0.692262,-0.203355,9.792426109,0.706134558,-1.182586074,-1.86508739,-1.182289004,-0.442088872,-1.016601563,-0.842285156,0.16796875
470,4225547650,-0.632472,-0.281706,0.692325,-0.203264,9.819736481,0.702245951,-1.209432006,-1.593346477,-1.192176342,-0.286379963,-1.015625,-0.842773438,0.166503906
471,4225555983,-0.632452,-0.281672,0.692381,-0.203182,9.817420006,0.732318699,-1.212199926,-1.504849076,-1.032163978,-0.225853518,-1.014648438,-0.838867188,0.165527344
472,4225564316,-0.632433,-0.281653,0.692428,-0.203107,9.802563667,0.772750258,-1.188459158,-1.297066331,-0.970587373,-0.350313038,-1.015136719,-0.839355469,0.166503906
473,4225572649,-0.632414,-0.281675,0.692456,-0.203042,9.765633583,0.764517009,-1.194811225,-0.927452922,-0.897842884,-0.71047473,-1.015625,-0.842285156,0.165039063
474,4225580982,-0.632388,-0.281675,0.692496,-0.202986,9.810202599,0.743273377,-1.164983511,-0.897894144,-0.951376617,-0.372136444,-1.015136719,-0.840332031,0.168457031
475,4225589315,-0.63237,-0.281665,0.692535,-0.202924,9.813392639,0.761212349,-1.134855986,-1.117075205,-0.86687535,-0.344575465,-1.015625,-0.83984375,0.16796875
476,4225597648,-0.632342,-0.281657,0.692578,-0.202875,9.816282272,0.784409344,-1.157551765,-0.910957396,-0.960341692,-0.225443676,-1.014160156,-0.837890625,0.166503906
477,4225605981,-0.632308,-0.28168,0.692612,-0.20283,9.783344269,0.722522974,-1.187557936,-0.642340958,-1.000453591,-0.479588091,-1.015625,-0.842285156,0.166503906
478,4225614314,-0.63227,-0.281701,0.692648,-0.202798,9.791546822,0.71392554,-1.164582729,-0.434712023,-1.010007739,-0.346394151,-1.016113281,-0.842285156,0.166992188
479,4225622647,-0.632234,-0.281704,0.692692,-0.202756,9.785316467,0.721908331,-1.189696312,-0.674281955,-1.026375294,-0.249521062,-1.018066406,-0.844238281,0.168945313
480,4225630980,-0.632201,-0.281706,0.692739,-0.202694,9.817069054,0.773136139,-1.180333734,-0.940951765,-1.122454166,-0.402642936,-1.016113281,-0.840820313,0.168457031
481,4225639313,-0.632165,-0.281707,0.692785,-0.202646,9.808857918,0.776154697,-1.170462847,-0.822383523,-1.059673786,-0.249982148,-1.016601563,-0.841796875,0.168945313
482,4225647646,-0.632145,-0.281694,0.692829,-0.202579,9.825874329,0.764652848,-1.174225211,-1.158903241,-0.94735527,-0.347085685,-1.015625,-0.842285156,0.166015625
483,4225655979,-0.632119,-0.281685,0.692879,-0.202501,9.805718422,0.751914024,-1.173159242,-1.155214787,-1.094893217,-0.447006851,-1.013183594,-0.841796875,0.169433594
484,4225664312,-0.632088,-0.281672,0.692931,-0.202437,9.793715477,0.730569899,-1.189031363,-1.10577929,-1.110492349,-0.254848808,-1.013671875,-0.839355469,0.164550781
485,4225672645,-0.632073,-0.281656,0.692971,-0.20237,9.792663574,0.758065462,-1.215632796,-1.07045722,-0.82135886,-0.367705166,-1.015625,-0.842285156,0.1640625
486,4225680978,-0.632057,-0.28165,0.693005,-0.202311,9.799201965,0.763251245,-1.23439467,-1.00757432,-0.814647853,-0.39116779,-1.01171875,-0.841308594,0.16796875
487,4225689311,-0.632043,-0.281658,0.693027,-0.202268,9.8343153,0.70657903,-1.247348785,-0.608863115,-0.63537389,-0.452923656,-1.015625,-0.838867188,0.167480469
488,4225697644,-0.632032,-0.28167,0.693036,-0.202254,9.830652237,0.702731371,-1.260344744,-0.374236792,-0.421956062,-0.275698841,-1.015136719,-0.841308594,0.168945313
489,4225705977,-0.632028,-0.281686,0.693038,-0.202239,9.801733971,0.736978889,-1.252133727,-0.361634582,-0.295934051,-0.389682144,-1.016601563,-0.841796875,0.166503906
490,4225714310,-0.632026,-0.281708,0.693037,-0.20222,9.795437813,0.7724213,-1.25286293,-0.329642385,-0.297470897,-0.477487743,-1.014648438,-0.844238281,0.169921875
491,4225722643,-0.632022,-0.281727,0.693036,-0.202206,9.783502579,0.749546349,-1.266568542,-0.328771502,-0.274597406,-0.411710411,-1.017089844,-0.840332031,0.166992188
492,4225730976,-0.632025,-0.28175,0.693024,-0.202208,9.764281273,0.769953489,-1.242663383,-0.121603586,-0.066609815,-0.379615784,-1.017089844,-0.842285156,0.16796875
493,4225739309,-0.632033,-0.281771,0.693002,-0.202231,9.780146599,0.771391213,-1.264501095,0.125202373,0.164750755,-0.219706103,-1.015136719,-0.843261719,0.168945313
494,4225747642,-0.632041,-0.281794,0.692975,-0.202264,9.786197662,0.764223814,-1.240581632,0.203248948,0.218719944,-0.167888492,-1.016113281,-0.845703125,0.166015625
495,4225755975,-0.632053,-0.281824,0.692941,-0.2023,9.795496941,0.757951021,-1.215132117,0.382958412,0.341668278,-0.270960182,-1.016601563,-0.83984375,0.168457031
496,4225764308,-0.632064,-0.281877,0.692897,-0.202343,9.803479195,0.740884304,-1.197707772,0.584670484,0.358445615,-0.442498744,-1.016113281,-0.841308594,0.166503906
497,4225772641,-0.632079,-0.281921,0.692853,-0.202385,9.790775299,0.714490354,-1.178981662,0.63641125,0.437900931,-0.39383167,-1.015625,-0.83984375,0.167480469
498,4225780974,-0.63209,-0.281963,0.692816,-0.202421,9.773079872,0.73516202,-1.180419326,0.4151555,0.302068681,-0.375952899,-1.013183594,-0.842285156,0.168457031
499,4225789307,-0.632104,-0.281986,0.692786,-0.202446,9.768780708,0.742136061,-1.174911737,0.131324202,0.299199879,-0.277415007,-1.015136719,-0.842285156,0.167480469
500,4225797640,-0.632119,-0.282001,0.692762,-0.20246,9.786240578,0.743516564,-1.163073778,-0.088484369,0.206834927,-0.268987864,-1.016601563,-0.841308594,0.168945313
501,4225805973,-0.632141,-0.282013,0.692738,-0.20246,9.784288406,0.756713569,-1.185268998,-0.245755762,0.249303341,-0.384149492,-1.014160156,-0.842285156,0.166015625
502,4225814306,-0.632159,-0.282012,0.69272,-0.202464,9.813056946,0.79450202,-1.19484663,-0.344959736,0.199099451,-0.190352201,-1.01171875,-0.843261719,0.166015625
503,4225822639,-0.632176,-0.282001,0.692711,-0.202457,9.790639877,0.790553689,-1.174582601,-0.41137743,0.124280259,-0.1709622,-1.014648438,-0.842773438,0.167480469
504,4225830972,-0.632188,-0.282007,0.69269,-0.202482,9.800581932,0.790925622,-1.191577792,-0.057593603,0.231680736,-0.079570614,-1.014648438,-0.84375,0.166992188
505,4225839305,-0.632202,-0.282025,0.692661,-0.202515,9.797171593,0.765211046,-1.16198647,0.0824266,0.321714759,-0.136869654,-1.012207031,-0.842285156,0.1640625
506,4225847638,-0.632197,-0.282054,0.692642,-0.202553,9.788214684,0.776576996,-1.144698024,0.332344711,0.030660242,-0.120502159,-1.016601563,-0.838867188,0.168457031
507,4225855971,-0.632189,-0.282096,0.692617,-0.202607,9.79783535,0.764488697,-1.111930966,0.52071178,0.090751238,-0.102674663,-1.015136719,-0.842773438,0.168457031
508,4225864304,-0.63217,-0.282126,0.692607,-0.202659,9.786827087,0.783858597,-1.132559657,0.496429473,-0.121936567,0.058067467,-1.015136719,-0.844726563,0.16796875
509,4225872637,-0.632149,-0.282137,0.692614,-0.202685,9.794024467,0.799387455,-1.127009273,0.034989044,-0.332588047,0.108732425,-1.012695313,-0.841796875,0.167480469
510,4225880970,-0.632135,-0.282121,0.692632,-0.202689,9.785668373,0.791004658,-1.126672983,-0.460198134,-0.38110137,0.178351924,-1.012695313,-0.840820313,0.168945313
511,4225889303,-0.632126,-0.282072,0.692666,-0.202666,9.796298027,0.781576872,-1.144390464,-1.068638682,-0.469675392,0.3145684,-1.015625,-0.842285156,0.167480469
512,4225897636,-0.632114,-0.282031,0.6927,-0.202647,9.80152607,0.774145067,-1.183745384,-0.948738456,-0.518777966,0.273508847,-1.014648438,-0.840820313,0.168945313
513,4225905969,-0.632092,-0.281993,0.692741,-0.202628,9.800581932,0.734954596,-1.174911737,-0.872817814,-0.667519689,0.294973493,-1.017578125,-0.842773438,0.166992188
514,4225914302,-0.632065,-0.281977,0.692776,-0.202616,9.787807465,0.716392994,-1.218172073,-0.601768017,-0.707657158,0.147128165,-1.014648438,-0.842285156,0.16796875
515,4225922635,-0.632042,-0.281974,0.692793,-0.202634,9.818371773,0.755433202,-1.202471614,-0.180106491,-0.434532672,0.196896628,-1.015625,-0.840332031,0.167480469
516,4225930968,-0.632008,-0.281997,0.692802,-0.202675,9.808443069,0.750097156,-1.219273567,0.336314887,-0.451233149,0.151815563,-1.014648438,-0.84375,0.166503906
517,4225939301,-0.631969,-0.282037,0.692806,-0.20273,9.795969009,0.723267198,-1.207171202,0.572017133,-0.448415637,0.119541638,-1.014160156,-0.843261719,0.168945313
518,4225947634,-0.631931,-0.282086,0.692801,-0.202798,9.773415565,0.741041839,-1.198001146,0.872625709,-0.340144247,0.099793054,-1.014160156,-0.841796875,0.16796875
519,4225955967,-0.631907,-0.282122,0.692791,-0.202857,9.801419258,0.733223617,-1.218451023,0.727367342,-0.13961038,0.076227963,-1.015625,-0.842285156,0.167480469
520,4225964300,-0.631879,-0.282151,0.692793,-0.202897,9.802563667,0.762615025,-1.204338551,0.375427842,-0.357741207,0.04718142,-1.014160156,-0.841308594,0.172363281
521,4225972633,-0.631853,-0.282175,0.692797,-0.202932,9.802284241,0.75489676,-1.217671394,0.25678274,-0.351209611,0.053277615,-1.015136719,-0.841308594,0.167480469
522,4225980966,-0.631834,-0.282177,0.692804,-0.20296,9.802664757,0.745090127,-1.212728739,-0.015739946,-0.290350109,0.182757556,-1.015136719,-0.841796875,0.173828125
523,4225989299,-0.63182,-0.282176,0.692811,-0.202984,9.795840263,0.706479132,-1.200254202,-0.078008153,-0.225366846,0.170770109,-1.01171875,-0.842773438,0.168945313
524,4225997632,-0.631807,-0.282187,0.692809,-0.203015,9.798458099,0.722673178,-1.185183167,0.091442816,-0.169348493,0.077406213,-1.013671875,-0.840332031,0.171875
525,4226005965,-0.631784,-0.282208,0.692811,-0.203049,9.790410995,0.72335273,-1.172937512,0.355653644,-0.289556116,0.036244143,-1.014648438,-0.839355469,0.169433594
526,4226014298,-0.631758,-0.28224,0.692807,-0.203099,9.796862602,0.726636291,-1.171585917,0.50588119,-0.255489171,0.069107205,-1.014648438,-0.840332031,0.171386719
527,4226022631,-0.631736,-0.282258,0.692808,-0.203142,9.809229851,0.75839448,-1.18381691,0.438464463,-0.232154608,0.143619016,-1.013183594,-0.841796875,0.171386719
528,4226030964,-0.631713,-0.28228,0.69281,-0.203173,9.796140671,0.75204277,-1.201856494,0.207295999,-0.32585147,0.017161537,-1.016113281,-0.843261719,0.170898438
529,4226039297,-0.631686,-0.282318,0.692806,-0.203219,9.82475853,0.733681381,-1.221090436,0.416743636,-0.294448435,-0.010591487,-1.013183594,-0.842285156,0.170898438
530,4226047630,-0.631668,-0.28234,0.692802,-0.203258,9.805381775,0.749060035,-1.193931103,0.295972496,-0.195295721,0.055839036,-1.012207031,-0.841308594,0.16796875
531,4226055963,-0.631647,-0.282354,0.692806,-0.203292,9.814480782,0.754674673,-1.195204139,0.255988657,-0.267143637,0.109833829,-1.013671875,-0.840820313,0.169921875
532,4226064296,-0.631633,-0.282377,0.692798,-0.203332,9.789030075,0.731964886,-1.184417844,0.30437395,-0.120271645,0.017648207,-1.014648438,-0.843261719,0.168945313
533,4226072629,-0.631616,-0.28239,0.692799,-0.203362,9.800403595,0.75870204,-1.209123731,0.121052884,-0.232077792,0.076586567,-1.014160156,-0.842285156,0.171386719
534,4226080962,-0.631605,-0.282399,0.692798,-0.203387,9.791835785,0.746020079,-1.205275655,0.005225305,-0.164123222,0.042365946,-1.015136719,-0.83984375,0.171875
535,4226089295,-0.631587,-0.28241,0.692802,-0.203414,9.75106144,0.765461326,-1.206913352,0.067391053,-0.267374188,0.078379557,-1.014160156,-0.842773438,0.166992188
536,4226097628,-0.631577,-0.282425,0.692797,-0.20344,9.77980423,0.754989564,-1.194868088,0.077226914,-0.150214672,-0.024295103,-1.014648438,-0.83984375,0.169433594
537,4226105961,-0.63156,-0.282435,0.692802,-0.20346,9.790989876,0.751914024,-1.222284913,0.24523069,-0.271574885,-0.004367227,-1.014648438,-0.843261719,0.171875
538,4226114294,-0.631549,-0.282471,0.692783,-0.203511,9.786941528,0.732844412,-1.196649194,0.547657907,0.011090964,-0.048628625,-1.013183594,-0.841796875,0.171386719
539,4226122627,-0.631534,-0.282493,0.692772,-0.203566,9.807084084,0.747350633,-1.218522906,0.453243881,-0.030032689,0.150611684,-1.017578125,-0.843261719,0.168945313
540,4226130960,-0.631537,-0.282511,0.692748,-0.203609,9.801347733,0.751670778,-1.186134458,0.258754998,0.20747529,-0.015253277,-1.015136719,-0.841796875,0.170410156
541,4226139293,-0.631544,-0.28252,0.692731,-0.203636,9.791805267,0.773944736,-1.20260036,-0.126726419,0.151610643,-0.034028511,-1.011230469,-0.844238281,0.16796875
542,4226147626,-0.631552,-0.282504,0.69273,-0.203637,9.783508301,0.754989803,-1.203501701,-0.514295399,-0.017635399,0.018365405,-1.014160156,-0.839355469,0.170898438
543,4226155959,-0.631572,-0.282466,0.692733,-0.203615,9.783651352,0.739575505,-1.193502069,-0.920460403,0.054404639,0.005174076,-1.014648438,-0.845214844,0.168945313
544,4226164292,-0.631587,-0.282437,0.692737,-0.203596,9.788786888,0.731864631,-1.167258263,-0.858730018,-0.042967878,-0.034387104,-1.018554688,-0.842285156,0.174804688
545,4226172625,-0.6316,-0.282411,0.692742,-0.203572,9.786669731,0.719297051,-1.144948363,-0.759551644,-0.057926588,-0.101726934,-1.012695313,-0.842773438,0.169433594
546,4226180958,-0.631606,-0.282382,0.692756,-0.203549,9.774381638,0.708889842,-1.147566199,-0.89446187,-0.228901595,-0.000550706,-1.016113281,-0.842285156,0.170898438
547,4226189291,-0.631609,-0.282346,0.692776,-0.203523,9.797348976,0.738931596,-1.158596039,-0.984034836,-0.277235687,0.073436014,-1.015136719,-0.839355469,0.171386719
548,4226197624,-0.631612,-0.282312,0.692796,-0.20349,9.794974327,0.76942414,-1.155656219,-1.018357992,-0.322624087,-0.009362003,-1.014160156,-0.840820313,0.171875
549,4226205957,-0.631616,-0.282279,0.692814,-0.203462,9.793092728,0.772349596,-1.167537212,-0.983804345,-0.277517408,0.010911662,-1.015625,-0.839355469,0.173828125
550,4226214290,-0.631614,-0.282234,0.692845,-0.203427,9.810173988,0.734218121,-1.189231634,-1.16348815,-0.43389231,0.136395797,-1.017578125,-0.844238281,0.170898438
551,4226222623,-0.631614,-0.282195,0.69287,-0.203396,9.811504364,0.735770047,-1.184632421,-0.993691385,-0.367320895,0.078943066,-1.013671875,-0.842285156,0.168457031
552,4226230956,-0.631607,-0.282163,0.692895,-0.203377,9.807249069,0.763222635,-1.161893487,-0.85171169,-0.40886724,0.143004268,-1.013671875,-0.841308594,0.169921875
553,4226239289,-0.631606,-0.28214,0.692909,-0.203365,9.804286957,0.74134928,-1.205740452,-0.781989813,-0.256232023,0.063446462,-1.017089844,-0.842285156,0.170898438
554,4226247622,-0.631596,-0.282114,0.692931,-0.203355,9.779917717,0.743430734,-1.163030863,-0.698871672,-0.408303738,0.161267221,-1.015136719,-0.843261719,0.168945313
555,4226255955,-0.631578,-0.282094,0.692956,-0.203353,9.77902317,0.744717896,-1.194732189,-0.508173645,-0.475489855,0.209421992,-1.016601563,-0.844726563,0.168457031
556,4226264288,-0.631566,-0.282068,0.69298,-0.203347,9.781019211,0.780697286,-1.196363091,-0.656915486,-0.421751171,0.196614861,-1.016113281,-0.842285156,0.168457031
557,4226272621,-0.63155,-0.282064,0.692995,-0.20335,9.788722992,0.747979641,-1.178566813,-0.268219471,-0.385942489,0.049461089,-1.018066406,-0.840820313,0.168457031
558,4226280954,-0.631524,-0.282069,0.693012,-0.203367,9.819159508,0.721514285,-1.187350631,-0.101060964,-0.485376984,0.127661362,-1.016113281,-0.842773438,0.173339844
559,4226289287,-0.631492,-0.282072,0.693031,-0.203395,9.806739807,0.714633644,-1.188537836,-0.126162902,-0.528793037,0.275839686,-1.019042969,-0.843261719,0.172851563
560,4226297620,-0.631469,-0.282058,0.693055,-0.203407,9.786448479,0.748001158,-1.203859091,-0.354334503,-0.478486717,0.27934885,-1.016113281,-0.83984375,0.16796875
561,4226305953,-0.631447,-0.282055,0.693073,-0.203414,9.755254745,0.779452443,-1.19834435,-0.408944041,-0.482969195,0.126918525,-1.016113281,-0.841308594,0.170898438
562,4226314286,-0.63143,-0.282033,0.693102,-0.203404,9.786505699,0.764474034,-1.189224601,-0.668902934,-0.534581959,0.168259919,-1.018066406,-0.841308594,0.169433594
563,4226322619,-0.631412,-0.281988,0.693141,-0.203389,9.819673538,0.750762403,-1.217349529,-0.929937541,-0.583940506,0.385750324,-1.017089844,-0.842285156,0.170898438
564,4226330952,-0.6314,-0.281949,0.693166,-0.203395,9.801683426,0.758694887,-1.202485919,-0.655148149,-0.346266061,0.444919288,-1.016601563,-0.842773438,0.170898438
565,4226339285,-0.631386,-0.281919,0.693188,-0.203404,9.816883087,0.734833002,-1.184181809,-0.560810804,-0.342833728,0.36989516,-1.015136719,-0.843261719,0.16796875
566,4226347618,-0.631366,-0.281896,0.693211,-0.203418,9.813664436,0.720863521,-1.205347061,-0.405076355,-0.414732903,0.369203597,-1.017578125,-0.840820313,0.170410156
567,4226355951,-0.63134,-0.281884,0.693231,-0.203448,9.809380531,0.730119288,-1.184582353,-0.055877451,-0.403616279,0.406421065,-1.016601563,-0.837890625,0.171875
568,4226364284,-0.63131,-0.281873,0.693251,-0.203488,9.794665337,0.702881217,-1.208658814,-0.011667284,-0.424671233,0.496839345,-1.017089844,-0.840820313,0.168457031
569,4226372617,-0.631285,-0.281856,0.693271,-0.203519,9.80167675,0.721099555,-1.214288116,-0.12693134,-0.38379091,0.461542934,-1.016601563,-0.840332031,0.172363281
570,4226380950,-0.631257,-0.28185,0.69329,-0.203548,9.805204391,0.75962466,-1.211827517,-0.069427378,-0.443702579,0.345126152,-1.015625,-0.840820313,0.169433594
571,4226389283,-0.631232,-0.281836,0.693312,-0.203573,9.783358574,0.737679839,-1.223686934,-0.311046451,-0.441909552,0.406830907,-1.016113281,-0.83984375,0.169921875
572,4226397616,-0.631196,-0.281837,0.69333,-0.203619,9.808965683,0.732207894,-1.18104887,0.180913344,-0.466832221,0.441717505,-1.016113281,-0.841796875,0.172851563
573,4226405949,-0.631167,-0.281837,0.69334,-0.203678,9.782649994,0.733831644,-1.180455089,0.260035723,-0.281052172,0.52324754,-1.016113281,-0.840820313,0.166992188
574,4226414282,-0.631136,-0.281843,0.693354,-0.20372,9.777943611,0.731285214,-1.201477289,0.177122429,-0.409712464,0.338568926,-1.012695313,-0.84375,0.170410156
575,4226422615,-0.631101,-0.281859,0.693363,-0.203773,9.785482407,0.739239156,-1.187608004,0.306371838,-0.407432795,0.330295533,-1.016113281,-0.839355469,0.170410156
576,4226430948,-0.631064,-0.28188,0.693369,-0.20384,9.79598999,0.715048611,-1.191213489,0.589486003,-0.345676899,0.402373999,-1.015136719,-0.840820313,0.169921875
577,4226439281,-0.631016,-0.281899,0.693384,-0.20391,9.812520027,0.707745194,-1.196305871,0.623552978,-0.505637884,0.491767704,-1.019042969,-0.838867188,0.170410156
578,4226447614,-0.630979,-0.281918,0.693392,-0.203971,9.816711426,0.704376578,-1.200111508,0.504984677,-0.392243624,0.382138789,-1.016113281,-0.837890625,0.170410156
579,4226455947,-0.630945,-0.28192,0.693409,-0.204017,9.796153069,0.720906258,-1.212800145,0.108604364,-0.433892369,0.436569005,-1.017578125,-0.842285156,0.171875
580,4226464280,-0.630913,-0.281927,0.693423,-0.20406,9.81467247,0.724976242,-1.239108205,0.194873095,-0.430895448,0.330884665,-1.017578125,-0.841796875,0.170898438
581,4226472613,-0.630886,-0.281917,0.69344,-0.204096,9.81415844,0.699576676,-1.236032724,0.030173568,-0.365553528,0.431779146,-1.017089844,-0.842285156,0.170898438
582,4226480946,-0.630865,-0.281903,0.693451,-0.204142,9.838134766,0.703288972,-1.223393679,0.011065349,-0.233589008,0.511772394,-1.016601563,-0.837890625,0.172851563
583,4226489279,-0.630846,-0.281892,0.693459,-0.20419,9.8458395,0.739911735,-1.237835646,0.26669541,-0.148575366,0.464667767,-1.019042969,-0.838378906,0.173828125
584,4226497612,-0.630822,-0.281903,0.693455,-0.204265,9.815002441,0.711257339,-1.234273434,0.56599772,-0.088509984,0.482341617,-1.016113281,-0.840332031,0.170898438
585,4226505945,-0.630802,-0.28193,0.693437,-0.204348,9.790403366,0.705670893,-1.218272209,0.55109024,0.067058064,0.376170635,-1.017089844,-0.840332031,0.175292969
586,4226514278,-0.63078,-0.281953,0.693423,-0.204432,9.780776024,0.715134084,-1.235782385,0.772038639,0.013165716,0.400478542,-1.019042969,-0.84375,0.171386719
587,4226522611,-0.630755,-0.281976,0.693409,-0.204524,9.797213554,0.706650794,-1.220854402,0.895960331,0.043492969,0.474119455,-1.016113281,-0.83984375,0.16796875
588,4226530944,-0.630731,-0.282001,0.693393,-0.204621,9.789244652,0.714211345,-1.222542405,0.931743443,0.068364404,0.481906295,-1.017578125,-0.838867188,0.173339844
589,4226539277,-0.630715,-0.282021,0.693376,-0.204701,9.771520615,0.745147407,-1.236504436,0.918167949,0.134858951,0.351504177,-1.016601563,-0.839355469,0.168945313
590,4226547610,-0.63071,-0.282022,0.693356,-0.20478,9.798787117,0.750168681,-1.254243851,0.484083474,0.273380756,0.49832496,-1.016113281,-0.83984375,0.174804688
591,4226555943,-0.630708,-0.282013,0.693342,-0.204845,9.796441078,0.722179651,-1.244301438,0.281654119,0.253760219,0.475733191,-1.018554688,-0.840820313,0.174316406
592,4226564276,-0.630718,-0.282,0.693314,-0.204927,9.794960976,0.706192911,-1.248808146,0.345997095,0.543790221,0.581468761,-1.016601563,-0.838867188,0.169921875
593,4226572609,-0.63073,-0.281993,0.693283,-0.205006,9.802921295,0.697981596,-1.242048264,0.385417402,0.577498555,0.490487039,-1.016113281,-0.839355469,0.168945313
594,4226580942,-0.630743,-0.281992,0.693249,-0.205082,9.796533585,0.728760242,-1.233872533,0.399223447,0.570864439,0.376478016,-1.013671875,-0.83984375,0.170898438
595,4226589275,-0.630758,-0.281988,0.693212,-0.205163,9.803430557,0.74089849,-1.201227307,0.224355072,0.630110145,0.476834625,-1.015136719,-0.840820313,0.170410156
596,4226597608,-0.630788,-0.281948,0.693184,-0.205222,9.799330711,0.739496768,-1.21348691,-0.177929267,0.729237258,0.586489141,-1.018066406,-0.838378906,0.172363281
597,4226605941,-0.630819,-0.281898,0.693158,-0.205283,9.821733475,0.734246671,-1.198730469,-0.284868717,0.75728488,0.708182395,-1.017089844,-0.837890625,0.173828125
598,4226614274,-0.630852,-0.281843,0.693137,-0.205331,9.826446533,0.718130887,-1.192937016,-0.448390037,0.683772027,0.646400809,-1.018554688,-0.837890625,0.171875
599,4226622607,-0.630882,-0.281788,0.693122,-0.205364,9.801433563,0.689433932,-1.154733539,-0.279387295,0.587769866,0.517868638,-1.015625,-0.838867188,0.172851563
600,4226630940,-0.630905,-0.281746,0.693106,-0.205404,9.76891613,0.692388058,-1.139362097,-0.394856215,0.489283115,0.504164934,-1.016113281,-0.836425781,0.168945313
601,4226639273,-0.630928,-0.281695,0.693097,-0.205431,9.776484489,0.722902477,-1.115836024,-0.591317415,0.405345261,0.51069659,-1.020019531,-0.837402344,0.172363281
602,4226647606,-0.630937,-0.281642,0.693105,-0.205453,9.786491394,0.737064719,-1.128353834,-0.668826103,0.099203937,0.582621455,-1.018066406,-0.837402344,0.172851563
603,4226655939,-0.63094,-0.281575,0.693126,-0.205466,9.817914009,0.752758026,-1.143753886,-0.955654263,-0.052778129,0.725420713,-1.018554688,-0.836425781,0.169433594
604,4226664272,-0.630937,-0.281496,0.693164,-0.205453,9.783479691,0.75072664,-1.126579881,-1.267789364,-0.34104076,0.670785666,-1.017578125,-0.838378906,0.170898438
605,4226672605,-0.630933,-0.281403,0.693212,-0.205428,9.802105904,0.730126441,-1.127373934,-1.376496196,-0.404820204,0.739790261,-1.01953125,-0.8359375,0.174804688
606,4226680938,-0.63092,-0.281332,0.693255,-0.205421,9.781892776,0.686000705,-1.128246784,-1.112746358,-0.476181418,0.700779796,-1.017089844,-0.836425781,0.168945313
607,4226689271,-0.630884,-0.281283,0.693306,-0.205427,9.784173965,0.663375735,-1.114927649,-0.653252661,-0.749101043,0.703904808,-1.018554688,-0.836914063,0.171386719
608,4226697604,-0.630831,-0.281267,0.69335,-0.205464,9.781777382,0.645737231,-1.122753143,-0.056671493,-0.852403283,0.680262864,-1.015625,-0.837890625,0.172363281
609,4226705937,-0.630774,-0.28125,0.693397,-0.205503,9.810217857,0.65231061,-1.118289828,-0.046220891,-0.890722275,0.717839003,-1.019042969,-0.836425781,0.167480469
610,4226714270,-0.630694,-0.281246,0.693461,-0.205539,9.792708397,0.683103681,-1.106544971,0.078046575,-1.310052872,0.718428016,-1.018066406,-0.837402344,0.173828125
611,4226722603,-0.630609,-0.281228,0.693544,-0.205544,9.802456856,0.67260319,-1.118068099,-0.017712243,-1.580641508,0.617405534,-1.018066406,-0.837402344,0.169921875
612,4226730936,-0.630515,-0.281229,0.693625,-0.205558,9.771814346,0.682198942,-1.114925623,-0.080723256,-1.67935884,0.576141,-1.015136719,-0.839355469,0.171386719
613,4226739269,-0.630421,-0.281232,0.693709,-0.20556,9.761785507,0.655767083,-1.175277233,-0.300800771,-1.777922392,0.483391821,-1.01953125,-0.838867188,0.173339844
614,4226747602,-0.630322,-0.281225,0.693805,-0.205549,9.778916359,0.679213226,-1.19033277,-0.410071075,-1.942878127,0.497940689,-1.017578125,-0.839355469,0.170410156
615,4226755935,-0.630217,-0.281211,0.693907,-0.205548,9.783288956,0.695691586,-1.182246566,-0.434481502,-2.002200842,0.717992663,-1.016601563,-0.836914063,0.172363281
616,4226764268,-0.630116,-0.281192,0.694009,-0.205537,9.788585663,0.681189179,-1.202298403,-0.515319943,-1.977175474,0.650755167,-1.019042969,-0.839355469,0.171875
617,4226772601,-0.630018,-0.281183,0.694104,-0.205526,9.794494629,0.676227093,-1.216189623,-0.505689025,-1.920030236,0.524220943,-1.020019531,-0.833007813,0.172851563
618,4226780934,-0.629915,-0.28116,0.69422,-0.205485,9.760435104,0.695136666,-1.174678206,-0.884216189,-2.227529049,0.48810491,-1.017578125,-0.840332031,0.174804688
619,4226789267,-0.629817,-0.281106,0.694352,-0.205415,9.75042057,0.703219056,-1.143024206,-1.40277648,-2.334314823,0.576960623,-1.017578125,-0.835449219,0.171875
620,4226797600,-0.629713,-0.28105,0.694492,-0.205335,9.792067528,0.73237133,-1.195628881,-1.597572684,-2.506211996,0.571863413,-1.021484375,-0.837402344,0.174316406
621,4226805933,-0.629615,-0.280999,0.694623,-0.205262,9.823469162,0.701111794,-1.221764088,-1.657510042,-2.353013515,0.544353724,-1.020019531,-0.835449219,0.170898438
622,4226814266,-0.629517,-0.28094,0.694762,-0.20517,9.794417381,0.663914979,-1.289560556,-1.758583903,-2.477754354,0.455882162,-1.014648438,-0.838867188,0.173339844
623,4226822599,-0.629409,-0.280945,0.694869,-0.205135,9.83109951,0.66015017,-1.261560082,-0.73844564,-2.263056517,0.288723707,-1.020019531,-0.8359375,0.174316406
624,4226830932,-0.629303,-0.280955,0.694964,-0.205122,9.794298172,0.65393436,-1.295960784,-0.262763649,-2.056067467,0.341463417,-1.017089844,-0.837402344,0.174804688
625,4226839265,-0.629205,-0.280963,0.695056,-0.205101,9.78584671,0.651482522,-1.284142375,-0.351721853,-1.971873283,0.255476385,-1.018554688,-0.837402344,0.172851563
626,4226847598,-0.62912,-0.28095,0.695155,-0.205045,9.797109604,0.710330248,-1.323395967,-0.949635029,-2.007144451,0.142338321,-1.018554688,-0.8359375,0.176269531
627,4226855931,-0.629048,-0.280928,0.695244,-0.204995,9.810009956,0.684190273,-1.320156693,-1.021636605,-1.719316959,0.217336774,-1.015625,-0.836425781,0.175292969
628,4226864264,-0.628985,-0.280895,0.695327,-0.204952,9.808842659,0.638497174,-1.318531871,-1.047020197,-1.533280849,0.325249523,-1.020996094,-0.838867188,0.176757813
629,4226872597,-0.628925,-0.280886,0.69539,-0.204935,9.814022064,0.624743581,-1.312382221,-0.786395431,-1.32232213,0.265722096,-1.020019531,-0.837402344,0.176269531
630,4226880930,-0.628874,-0.280874,0.695448,-0.204907,9.778458595,0.650701284,-1.303469777,-0.687959969,-1.213768959,0.126508698,-1.020019531,-0.836914063,0.17578125
631,4226889263,-0.62882,-0.280876,0.695503,-0.204885,9.772092819,0.664184213,-1.29093802,-0.500847876,-1.217021823,0.039778903,-1.020019531,-0.835449219,0.176757813
632,4226897596,-0.628774,-0.280877,0.69555,-0.204866,9.79479599,0.6729967,-1.270724058,-0.472262442,-1.072224617,0.023898082,-1.01953125,-0.837890625,0.177734375
633,4226905929,-0.628724,-0.280872,0.695601,-0.204855,9.792557716,0.663876474,-1.266232014,-0.467933655,-1.080139518,0.176149085,-1.018554688,-0.838867188,0.174804688
634,4226914262,-0.628676,-0.280865,0.695651,-0.20484,9.802212715,0.692380905,-1.238829494,-0.511324108,-1.079319835,0.150406793,-1.017089844,-0.833984375,0.1796875
635,4226922595,-0.62862,-0.280875,0.695698,-0.204838,9.801948547,0.718581736,-1.248178244,-0.324109733,-1.130548358,0.137445986,-1.019042969,-0.8359375,0.174316406
636,4226930928,-0.628565,-0.280886,0.695742,-0.204843,9.795618057,0.737093329,-1.252949238,-0.134461939,-1.061415553,0.140724614,-1.019042969,-0.835449219,0.176269531
637,4226939261,-0.62851,-0.280887,0.695797,-0.204825,9.775025368,0.713961005,-1.207421303,-0.617238998,-1.226012349,0.11316368,-1.015625,-0.8359375,0.177734375
638,4226947594,-0.628456,-0.280865,0.695871,-0.20477,9.770653725,0.71788162,-1.251109719,-1.072147846,-1.451161623,0.049307398,-1.018554688,-0.833496094,0.172851563
639,4226955927,-0.628391,-0.28084,0.695948,-0.204743,9.788686752,0.669155598,-1.250510097,-0.482610613,-1.435613751,0.33967036,-1.020019531,-0.837890625,0.175292969
640,4226964260,-0.628322,-0.280833,0.696012,-0.204744,9.787055969,0.666594923,-1.201262712,-0.329335034,-1.335154772,0.399658889,-1.017089844,-0.836425781,0.177734375
641,4226972593,-0.628242,-0.280815,0.696098,-0.20472,9.788983345,0.702423692,-1.16911912,-0.676715374,-1.691807628,0.410544962,-1.020019531,-0.836914063,0.176757813
642,4226980926,-0.628163,-0.280804,0.696185,-0.204684,9.814433098,0.736733615,-1.224094391,-0.742953658,-1.765704393,0.240440801,-1.019042969,-0.8359375,0.176757813
643,4226989259,-0.628084,-0.280786,0.696276,-0.204642,9.798822403,0.694574177,-1.26692307,-0.89710021,-1.797645569,0.279938012,-1.020019531,-0.8359375,0.177246094
644,4226997592,-0.627999,-0.280767,0.696368,-0.204616,9.80503273,0.628394902,-1.273510218,-0.696950495,-1.788398623,0.424351007,-1.017578125,-0.837890625,0.178222656
645,4227005925,-0.627911,-0.28075,0.696462,-0.20459,9.802856445,0.624026835,-1.311251998,-0.68309325,-1.854073644,0.443356812,-1.021484375,-0.8359375,0.174804688
646,4227014258,-0.627824,-0.280743,0.696546,-0.204582,9.817978859,0.669155955,-1.313725948,-0.39383164,-1.714399099,0.451066673,-1.018554688,-0.836914063,0.177734375
647,4227022591,-0.627745,-0.280741,0.69662,-0.204574,9.801647186,0.658683896,-1.340657234,-0.093351081,-1.543193579,0.315003872,-1.018554688,-0.836914063,0.178710938
648,4227030924,-0.627672,-0.280757,0.69668,-0.204573,9.789287567,0.641724467,-1.313955784,-0.121962182,-1.406080604,0.153249964,-1.018554688,-0.834960938,0.178710938
649,4227039257,-0.627606,-0.28076,0.696742,-0.204557,9.807498932,0.674534559,-1.313934326,-0.441346049,-1.376060843,0.150893465,-1.016601563,-0.837890625,0.182128906
650,4227047590,-0.62755,-0.280759,0.696794,-0.204555,9.785110474,0.672803581,-1.316280484,-0.32585147,-1.146377921,0.23516427,-1.0234375,-0.8359375,0.179199219
651,4227055923,-0.627497,-0.280755,0.696845,-0.204548,9.808384895,0.646166682,-1.320715189,-0.379615784,-1.107930899,0.211778492,-1.017089844,-0.836425781,0.180175781
652,4227064256,-0.62745,-0.280749,0.696893,-0.204538,9.798622131,0.672581851,-1.318204522,-0.460198134,-1.033623934,0.172844842,-1.017578125,-0.838378906,0.180664063
653,4227072589,-0.627409,-0.280749,0.696934,-0.204525,9.798027039,0.663719654,-1.312954187,-0.332690477,-0.915772855,0.034246236,-1.018066406,-0.833984375,0.181640625
654,4227080922,-0.627369,-0.280752,0.696974,-0.204505,9.783051491,0.679040551,-1.286124229,-0.477103561,-0.969332337,-0.051907249,-1.019042969,-0.836914063,0.180175781
655,4227089255,-0.627332,-0.280745,0.697016,-0.204486,9.781877518,0.690599859,-1.27867794,-0.887264252,-0.918385625,0.101381145,-1.019042969,-0.8359375,0.178710938
656,4227097588,-0.627309,-0.280701,0.697067,-0.20444,9.782435417,0.699998677,-1.273642421,-1.23915267,-0.86682409,0.172870472,-1.018554688,-0.8359375,0.177734375
657,4227105921,-0.627295,-0.280663,0.697111,-0.204387,9.793235779,0.711722195,-1.297926307,-1.293429136,-0.759807825,0.000742813,-1.018554688,-0.836425781,0.180664063
658,4227114254,-0.627279,-0.280617,0.697159,-0.204334,9.794023514,0.661931217,-1.343060732,-1.341763258,-0.779274583,0.104173094,-1.017578125,-0.833984375,0.178710938
659,4227122587,-0.627254,-0.2806,0.697195,-0.204313,9.797706604,0.656166077,-1.339427114,-0.886034787,-0.733937383,0.091724575,-1.020019531,-0.835449219,0.181640625
660,4227130920,-0.627236,-0.280583,0.697223,-0.204299,9.808608055,0.644349575,-1.334105372,-0.653201461,-0.565805674,0.094798289,-1.020019531,-0.834472656,0.181640625
661,4227139253,-0.627215,-0.280567,0.697249,-0.204293,9.782320976,0.648212075,-1.334370017,-0.478998929,-0.540268183,0.140929505,-1.01953125,-0.837890625,0.1796875
662,4227147586,-0.6272,-0.280562,0.697265,-0.204292,9.792013168,0.659055769,-1.308147669,-0.38881126,-0.419599563,0.022309998,-1.017089844,-0.835449219,0.180175781
663,4227155919,-0.627184,-0.280557,0.697284,-0.204285,9.795460701,0.655300558,-1.295372725,-0.406792432,-0.463425517,-0.008260589,-1.020019531,-0.834472656,0.183105469
664,4227164252,-0.627168,-0.280555,0.697298,-0.204289,9.793909073,0.667159975,-1.295773268,-0.314658105,-0.398339778,0.033862021,-1.017089844,-0.833984375,0.178710938
665,4227172585,-0.627154,-0.280558,0.697306,-0.204298,9.777134895,0.64688164,-1.296688795,-0.362582326,-0.326440632,0.034476765,-1.01953125,-0.833007813,0.180664063
666,4227180918,-0.627147,-0.280563,0.697311,-0.204299,9.786934853,0.628792107,-1.284021139,-0.291400373,-0.268911064,-0.119067766,-1.013671875,-0.837402344,0.181640625
667,4227189251,-0.627125,-0.280575,0.697324,-0.204304,9.77097702,0.646109164,-1.26899302,-0.192298889,-0.481073767,-0.074652694,-1.01953125,-0.836425781,0.178222656
668,4227197584,-0.627106,-0.280591,0.69733,-0.204317,9.808563232,0.657932878,-1.264207602,-0.035949584,-0.372597456,-0.079365715,-1.016601563,-0.836914063,0.183105469
669,4227205917,-0.627078,-0.280614,0.697345,-0.204326,9.795325279,0.691000402,-1.270709753,-0.157232955,-0.574411988,-0.097936019,-1.021972656,-0.834960938,0.178710938
670,4227214250,-0.627059,-0.280625,0.69736,-0.204316,9.763923645,0.683861852,-1.270852804,-0.325492889,-0.530637324,-0.198523104,-1.020019531,-0.834472656,0.180175781
671,4227222583,-0.627038,-0.280617,0.697385,-0.204303,9.760604858,0.688654244,-1.271968603,-0.458020926,-0.570185661,0.002971251,-1.019042969,-0.8359375,0.181640625
672,4227230916,-0.627019,-0.280618,0.697406,-0.204291,9.779502869,0.665721893,-1.286617875,-0.450157344,-0.560349762,-0.100266919,-1.019042969,-0.835449219,0.180664063
673,4227239249,-0.626997,-0.280631,0.697422,-0.204285,9.772356987,0.643097579,-1.284493446,-0.331076771,-0.560990095,-0.155516818,-1.017578125,-0.8359375,0.1796875
674,4227247582,-0.626979,-0.280625,0.69745,-0.204252,9.791647911,0.676844537,-1.285616398,-0.736831903,-0.656992376,-0.191453606,-1.017089844,-0.835449219,0.182128906
675,4227255915,-0.626968,-0.28061,0.697478,-0.204214,9.801805496,0.66266048,-1.304957747,-0.841030657,-0.591086924,-0.156567007,-1.018554688,-0.834960938,0.185546875
676,4227264248,-0.626958,-0.280595,0.697503,-0.204176,9.789609909,0.660958469,-1.291030884,-0.884062529,-0.561861038,-0.177468225,-1.020019531,-0.836425781,0.178710938
677,4227272581,-0.626953,-0.280572,0.697533,-0.204124,9.812713623,0.658462107,-1.30025804,-0.991206646,-0.570262492,-0.217785031,-1.019042969,-0.833984375,0.180175781
678,4227280914,-0.626943,-0.280561,0.697559,-0.20408,9.796097755,0.639085054,-1.306817293,-0.907140911,-0.615727782,-0.268475592,-1.020019531,-0.8359375,0.18359375
679,4227289247,-0.626933,-0.280551,0.697579,-0.204054,9.802327156,0.667868078,-1.312539577,-0.737779617,-0.470264494,-0.130799085,-1.021972656,-0.834472656,0.176757813
680,4227297580,-0.626922,-0.280545,0.697601,-0.204024,9.771492004,0.664649665,-1.325636148,-0.716494203,-0.550078511,-0.207001448,-1.018554688,-0.834960938,0.177734375
681,4227305913,-0.62691,-0.280535,0.697627,-0.203982,9.764395714,0.660886943,-1.317131639,-0.881347358,-0.604790509,-0.240658566,-1.020996094,-0.833496094,0.180664063
682,4227314246,-0.6269,-0.280523,0.69765,-0.203951,9.784695625,0.667717874,-1.335628867,-0.791774452,-0.530842245,-0.146961674,-1.020996094,-0.837402344,0.181640625
683,4227322579,-0.626894,-0.280514,0.697666,-0.203927,9.79473877,0.681100845,-1.339806199,-0.710372388,-0.408406168,-0.148652226,-1.020996094,-0.833984375,0.181152344
684,4227330912,-0.626893,-0.280515,0.697675,-0.2039,9.781748772,0.663147032,-1.331816792,-0.629456997,-0.337352276,-0.316809654,-1.020019531,-0.834472656,0.184082031
685,4227339245,-0.626894,-0.280514,0.69768,-0.20388,9.784051895,0.664191544,-1.286159873,-0.600051939,-0.255028129,-0.264351696,-1.019042969,-0.833984375,0.1796875
686,4227347578,-0.626882,-0.280522,0.697693,-0.203863,9.807413101,0.658254683,-1.302618504,-0.454306901,-0.452129722,-0.25282532,-1.020019531,-0.8359375,0.181152344
687,4227355911,-0.626873,-0.280541,0.697696,-0.203852,9.795990944,0.665950894,-1.282247663,-0.360712498,-0.358970731,-0.343192339,-1.018066406,-0.834472656,0.182617188
688,4227364244,-0.626859,-0.280554,0.697709,-0.203835,9.772393227,0.67025739,-1.28821969,-0.389400363,-0.485325664,-0.289274335,-1.021484375,-0.8359375,0.182128906
689,4227372577,-0.626846,-0.280553,0.697728,-0.203811,9.774410248,0.696121812,-1.291717649,-0.526385307,-0.513347685,-0.219782934,-1.018066406,-0.834472656,0.180175781
690,4227380910,-0.62683,-0.28055,0.697752,-0.20378,9.780361176,0.668296993,-1.268642783,-0.684911847,-0.620082259,-0.214352727,-1.020996094,-0.835449219,0.182617188
691,4227389243,-0.626812,-0.280551,0.697776,-0.203751,9.796941757,0.666666448,-1.301445484,-0.618084252,-0.636321604,-0.22759527,-1.017578125,-0.831542969,0.181152344
692,4227397576,-0.626792,-0.280571,0.697793,-0.203727,9.775749207,0.670314074,-1.30835557,-0.384815514,-0.628534913,-0.39623946,-1.017089844,-0.834960938,0.182617188
693,4227405909,-0.626768,-0.280594,0.697813,-0.203704,9.773129463,0.671480298,-1.3086555,-0.255745322,-0.693492591,-0.396700472,-1.020996094,-0.835449219,0.180175781
694,4227414242,-0.626749,-0.280603,0.697836,-0.203669,9.768930435,0.673618972,-1.31086576,-0.605661392,-0.679917037,-0.363068968,-1.018554688,-0.837890625,0.181152344
695,4227422575,-0.626751,-0.280583,0.69786,-0.203606,9.789323807,0.680786133,-1.311101794,-1.145404458,-0.512784064,-0.390527397,-1.017578125,-0.834960938,0.179199219
696,4227430908,-0.626752,-0.280551,0.697897,-0.203526,9.796978951,0.714982927,-1.314541817,-1.510048628,-0.675383329,-0.352106065,-1.019042969,-0.836425781,0.1796875
697,4227439241,-0.626755,-0.280509,0.697937,-0.203432,9.77685833,0.68906635,-1.318087339,-1.671725988,-0.696720004,-0.38386777,-1.020019531,-0.836914063,0.181640625
698,4227447574,-0.626759,-0.280476,0.697969,-0.203356,9.784552574,0.644235134,-1.30129528,-1.484306455,-0.579919159,-0.344344944,-1.01953125,-0.834472656,0.179199219
699,4227455907,-0.626748,-0.280444,0.698012,-0.203287,9.782485962,0.680986404,-1.278964043,-1.390583992,-0.791953683,-0.200085595,-1.018554688,-0.833496094,0.179199219
700,4227464240,-0.626748,-0.280406,0.698054,-0.203197,9.776338577,0.699091136,-1.316321015,-1.674415231,-0.75611937,-0.364272803,-1.01953125,-0.837402344,0.1796875
701,4227472573,-0.626749,-0.280374,0.698094,-0.203101,9.792022705,0.682971478,-1.332629919,-1.759582758,-0.758014917,-0.463656098,-1.021484375,-0.836425781,0.181152344
702,4227480906,-0.626736,-0.280366,0.698123,-0.20305,9.805224419,0.659620881,-1.323869586,-0.942001879,-0.696489453,-0.326568663,-1.018554688,-0.835449219,0.181152344
703,4227489239,-0.626711,-0.280385,0.698143,-0.203035,9.791241646,0.618899524,-1.322482228,-0.356306791,-0.661449194,-0.274648637,-1.020019531,-0.839355469,0.180175781
704,4227497572,-0.62669,-0.280417,0.698151,-0.203026,9.800883293,0.645050526,-1.334448814,-0.10377606,-0.546005785,-0.414476752,-1.018554688,-0.836425781,0.180175781
705,4227505905,-0.626672,-0.280447,0.698159,-0.203013,9.785625458,0.702752531,-1.324427605,-0.210894823,-0.513552606,-0.429384232,-1.017578125,-0.834472656,0.179199219
706,4227514238,-0.626663,-0.280476,0.698162,-0.202989,9.772794724,0.706643641,-1.312475443,-0.308382601,-0.434814423,-0.566394806,-1.020507813,-0.8359375,0.181152344
707,4227522571,-0.626649,-0.28049,0.69818,-0.202955,9.781556129,0.707401872,-1.30969274,-0.447134912,-0.591957808,-0.440808207,-1.020019531,-0.840820313,0.184082031
708,4227530904,-0.626642,-0.280473,0.698205,-0.202913,9.794137955,0.679820478,-1.334963679,-0.956448257,-0.541190386,-0.202928767,-1.020019531,-0.839355469,0.180664063
709,4227539237,-0.626642,-0.280467,0.698219,-0.202872,9.787971497,0.667503178,-1.355886221,-0.840441465,-0.403616279,-0.345471978,-1.0234375,-0.834960938,0.180175781
710,4227547570,-0.626633,-0.280481,0.698232,-0.202836,9.810488701,0.646781862,-1.356071234,-0.576000154,-0.525335193,-0.492420942,-1.020019531,-0.835449219,0.180175781
711,4227555903,-0.626628,-0.280498,0.698239,-0.202805,9.806954384,0.64766854,-1.353825688,-0.146295696,-0.3811782,-0.550975025,-1.021972656,-0.8359375,0.184082031
712,4227564236,-0.626618,-0.280528,0.698237,-0.202798,9.781405449,0.662789583,-1.324692249,-0.128519416,-0.342782497,-0.447237313,-1.020507813,-0.836425781,0.184082031
713,4227572569,-0.626609,-0.280572,0.698228,-0.202798,9.79506588,0.68225956,-1.336014986,-0.075600415,-0.279412866,-0.517907023,-1.022460938,-0.837402344,0.179199219
714,4227580902,-0.626614,-0.2806,0.698215,-0.202792,9.774044037,0.680943489,-1.325071096,-0.147986248,-0.081005014,-0.496647179,-1.020507813,-0.836914063,0.182128906
715,4227589235,-0.6266,-0.280643,0.698209,-0.202795,9.776075363,0.684798837,-1.360377669,-0.116762489,-0.342347056,-0.458661288,-1.017578125,-0.8359375,0.183105469
716,4227597568,-0.626608,-0.280666,0.698195,-0.202784,9.780747414,0.702623785,-1.350106239,-0.250648081,-0.065457173,-0.509966612,-1.019042969,-0.838867188,0.184082031
717,4227605901,-0.626613,-0.280676,0.698196,-0.202751,9.765625954,0.740512371,-1.326258659,-0.490807205,-0.24539718,-0.51457715,-1.018066406,-0.837890625,0.181152344
718,4227614234,-0.626617,-0.280685,0.698197,-0.202726,9.770934105,0.721206844,-1.325536251,-0.540985405,-0.231309354,-0.432176173,-1.015625,-0.834960938,0.181640625
719,4227622567,-0.626631,-0.280689,0.698189,-0.202701,9.790998459,0.705019951,-1.322796464,-0.592777371,-0.043454546,-0.425260305,-1.017089844,-0.837890625,0.182617188
720,4227630900,-0.626644,-0.280696,0.698182,-0.202674,9.788336754,0.6940189,-1.323225856,-0.582096279,-0.089304022,-0.483686358,-1.017578125,-0.834472656,0.180664063
721,4227639233,-0.626648,-0.28072,0.69817,-0.202671,9.769968033,0.691214979,-1.316888452,-0.425542146,-0.09378653,-0.39631629,-1.020507813,-0.836914063,0.180664063
722,4227647566,-0.626651,-0.280732,0.698168,-0.202653,9.765854836,0.68374759,-1.297567964,-0.432662815,-0.200930864,-0.395599037,-1.018066406,-0.839355469,0.18359375
723,4227655899,-0.626654,-0.280743,0.698165,-0.202637,9.76707077,0.712251484,-1.300386906,-0.29309088,-0.162791297,-0.400158435,-1.01953125,-0.836914063,0.181152344
724,4227664232,-0.626651,-0.28076,0.698167,-0.202619,9.76636982,0.692881584,-1.29060173,-0.383483499,-0.317193866,-0.41145426,-1.020996094,-0.837890625,0.180175781
725,4227672565,-0.626647,-0.280779,0.698166,-0.202607,9.785889626,0.68131566,-1.318268418,-0.383842081,-0.276595324,-0.386070549,-1.020507813,-0.8359375,0.182617188
726,4227680898,-0.626657,-0.280782,0.698166,-0.202573,9.791069031,0.70683676,-1.318862677,-0.696540654,-0.185767233,-0.45650968,-1.01953125,-0.838867188,0.182128906
