PacketCounter,SampleTimeFine,Euler_X,Euler_Y,Euler_Z,Acc_X,Acc_Y,Acc_Z,Gyr_X,Gyr_Y,Gyr_Z,Mag_X,Mag_Y,Mag_Z,
0, 605193698, 0.8813546299934387, -1.0486897230148315, 70.99354553222656, 0, 0, 0, 0, 0, 0, -0.25244140625, -0.241455078125, -0.779296875, 
1, 605210365, 0.8830882906913757, -1.0787172317504883, 70.99394226074219, 0.16329337656497955, 0.09609858691692352, 9.426738739013672, 1.3424702882766724, -1.4646748304367065, 0.509750247001648, -0.25634765625, -0.238037109375, -0.78125, 
2, 605227032, 0.8471108675003052, -1.0898462533950806, 71.06901550292969, 0.1719367802143097, 0.11176900565624237, 9.437581062316895, 1.3441096544265747, -1.3974801301956177, 0.48348450660705566, -0.25537109375, -0.239990234375, -0.7783203125, 
3, 605243699, 0.8239808678627014, -1.1034680604934692, 71.10153198242188, 0.19315315783023834, 0.11630289256572723, 9.425536155700684, 1.334299921989441, -1.3999131917953491, 0.5162815451622009, -0.25537109375, -0.241455078125, -0.779296875, 
4, 605260366, 0.8158091306686401, -1.130470871925354, 71.10905456542969, 0.1906294822692871, 0.08787170797586441, 9.433730125427246, 1.3080850839614868, -1.4179315567016602, 0.5195983052253723, -0.25244140625, -0.240478515625, -0.77880859375, 
5, 605277033, 0.8070228099822998, -1.158200740814209, 71.09178924560547, 0.1916639655828476, 0.118002749979496, 9.422568321228027, 1.4015014171600342, -1.4048820734024048, 0.5039042234420776, -0.25439453125, -0.240478515625, -0.77978515625, 
6, 605293700, 0.8078132271766663, -1.1863758563995361, 71.09037780761719, 0.19664910435676575, 0.10891471803188324, 9.441699028015137, 1.2948434352874756, -1.5081653594970703, 0.4664904475212097, -0.25341796875, -0.242431640625, -0.783203125, 
7, 605310367, 0.8140849471092224, -1.212224006652832, 71.06416320800781, 0.17966732382774353, 0.10898350179195404, 9.441659927368164, 1.370260238647461, -1.3992472887039185, 0.43177247047424316, -0.25341796875, -0.241455078125, -0.77978515625, 
8, 605327034, 0.8223735690116882, -1.2352814674377441, 71.04590606689453, 0.1926245540380478, 0.12166932225227356, 9.42316722869873, 1.3416635990142822, -1.4703994989395142, 0.5007987022399902, -0.25048828125, -0.239501953125, -0.778564453125, 
9, 605343701, 0.8339819312095642, -1.2571624517440796, 71.02373504638672, 0.1829701066017151, 0.12266214936971664, 9.430432319641113, 1.3294464349746704, -1.4277287721633911, 0.5286269187927246, -0.25244140625, -0.239013671875, -0.779296875, 
10, 605360368, 0.84650057554245, -1.2781682014465332, 71.01973724365234, 0.16317512094974518, 0.10703626275062561, 9.441488265991211, 1.262341022491455, -1.473421573638916, 0.590327799320221, -0.2529296875, -0.239990234375, -0.77978515625, 
11, 605377035, 0.8610355257987976, -1.2966372966766357, 71.01251983642578, 0.16807544231414795, 0.1059880405664444, 9.445978164672852, 1.3833482265472412, -1.4885845184326172, 0.47203561663627625, -0.25439453125, -0.239501953125, -0.7783203125, 
12, 605393702, 0.8741688132286072, -1.3129924535751343, 71.0180892944336, 0.18865157663822174, 0.13069669902324677, 9.42276382446289, 1.306484580039978, -1.4351052045822144, 0.5188300609588623, -0.25537109375, -0.239013671875, -0.7822265625, 
13, 605410369, 0.8896502256393433, -1.329728126525879, 71.0323257446289, 0.17422999441623688, 0.10141179710626602, 9.433002471923828, 1.3531893491744995, -1.4269731044769287, 0.5137587189674377, -0.25439453125, -0.240478515625, -0.77978515625, 
14, 605427036, 0.9055452346801758, -1.3468223810195923, 71.02935791015625, 0.1744839996099472, 0.1087653636932373, 9.440217971801758, 1.410485029220581, -1.4762520790100098, 0.5079702734947205, -0.25341796875, -0.240966796875, -0.78271484375, 
15, 605443703, 0.9206771850585938, -1.3637793064117432, 71.02618408203125, 0.19522209465503693, 0.12546704709529877, 9.458209037780762, 1.3656115531921387, -1.479287028312683, 0.5696200132369995, -0.255615234375, -0.246337890625, -0.78125, 
16, 605460370, 0.9371082782745361, -1.3810145854949951, 70.99764251708984, 0.19357359409332275, 0.12722688913345337, 9.427000999450684, 1.4014052152633667, -1.460730791091919, 0.48909369111061096, -0.25341796875, -0.239013671875, -0.78125, 
17, 605477037, 0.9509940147399902, -1.3977999687194824, 70.97080993652344, 0.18221701681613922, 0.10913299024105072, 9.42622184753418, 1.2187480926513672, -1.4080196619033813, 0.49699515104293823, -0.2548828125, -0.239013671875, -0.78173828125, 
18, 605493704, 0.967758297920227, -1.4144381284713745, 71.0146484375, 0.17316482961177826, 0.11722581833600998, 9.439920425415039, 1.3998043537139893, -1.403409481048584, 0.4749426543712616, -0.25146484375, -0.239990234375, -0.78125, 
19, 605510371, 0.9833980798721313, -1.4321316480636597, 71.01822662353516, 0.181685209274292, 0.12820352613925934, 9.437865257263184, 1.3277559280395508, -1.4826679229736328, 0.5214554071426392, -0.257568359375, -0.242919921875, -0.77880859375, 
20, 605527038, 0.999745786190033, -1.4492195844650269, 71.06230163574219, 0.17015746235847473, 0.11454914510250092, 9.438024520874023, 1.349731683731079, -1.4468228816986084, 0.47202280163764954, -0.2548828125, -0.240478515625, -0.7783203125, 
21, 605543705, 1.0154544115066528, -1.4667378664016724, 71.06387329101562, 0.18590369820594788, 0.11248490959405899, 9.418621063232422, 1.3126187324523926, -1.4870860576629639, 0.43795791268348694, -0.25341796875, -0.239501953125, -0.77880859375, 
22, 605560372, 1.032224178314209, -1.4847047328948975, 71.04519653320312, 0.18704833090305328, 0.11778353154659271, 9.412101745605469, 1.3844497203826904, -1.5031070709228516, 0.5491426587104797, -0.25341796875, -0.242431640625, -0.78076171875, 
23, 605577039, 1.0468904972076416, -1.502131700515747, 71.01414489746094, 0.18074876070022583, 0.11100515723228455, 9.450628280639648, 1.2539783716201782, -1.4637271165847778, 0.5070096850395203, -0.2548828125, -0.241943359375, -0.7783203125, 
24, 605593706, 1.0627760887145996, -1.5190356969833374, 71.00650024414062, 0.17180030047893524, 0.10899677127599716, 9.446133613586426, 1.3335316181182861, -1.4335556030273438, 0.5031550526618958, -0.25244140625, -0.238525390625, -0.78173828125, 
25, 605610373, 1.078711748123169, -1.5361902713775635, 70.97689056396484, 0.18862199783325195, 0.12264703959226608, 9.448512077331543, 1.342585563659668, -1.4556208848953247, 0.5196239948272705, -0.25244140625, -0.240478515625, -0.78271484375, 
26, 605627040, 1.0942254066467285, -1.5547860860824585, 71.00210571289062, 0.19085529446601868, 0.10888306796550751, 9.451338768005371, 1.308226227760315, -1.5372613668441772, 0.412870317697525, -0.25537109375, -0.241455078125, -0.77880859375, 
27, 605643707, 1.1107503175735474, -1.5730258226394653, 71.00520324707031, 0.18644407391548157, 0.10586270689964294, 9.428499221801758, 1.3767019510269165, -1.5075507164001465, 0.47869497537612915, -0.25244140625, -0.238037109375, -0.7802734375, 
28, 605660374, 1.1258188486099243, -1.5907121896743774, 71.06407928466797, 0.17341458797454834, 0.12257802486419678, 9.431180000305176, 1.2937421798706055, -1.4723845720291138, 0.4363827407360077, -0.2548828125, -0.238525390625, -0.78076171875, 
29, 605677041, 1.1418218612670898, -1.6084920167922974, 71.0704574584961, 0.18749551475048065, 0.12152505666017532, 9.436481475830078, 1.3465428352355957, -1.4828215837478638, 0.4934733808040619, -0.25439453125, -0.239990234375, -0.7802734375, 
30, 605693708, 1.157419204711914, -1.6270033121109009, 71.07221984863281, 0.18330693244934082, 0.11144117265939713, 9.438460350036621, 1.3197903633117676, -1.5217654705047607, 0.5520880818367004, -0.2548828125, -0.239013671875, -0.78125, 
31, 605710375, 1.1738824844360352, -1.645363211631775, 71.0844955444336, 0.1856994777917862, 0.12335032224655151, 9.439166069030762, 1.3716946840286255, -1.5150296688079834, 0.46810412406921387, -0.25244140625, -0.239501953125, -0.778076171875, 
32, 605727042, 1.1904114484786987, -1.664136290550232, 71.10834503173828, 0.1844179928302765, 0.12894897162914276, 9.443671226501465, 1.3755236864089966, -1.5358144044876099, 0.5509868264198303, -0.255126953125, -0.244873046875, -0.77734375, 
33, 605743709, 1.206322431564331, -1.6816344261169434, 71.08846282958984, 0.16641820967197418, 0.10252407193183899, 9.43144416809082, 1.3312904834747314, -1.4596292972564697, 0.5294849276542664, -0.25244140625, -0.238525390625, -0.783203125, 
34, 605760376, 1.221199870109558, -1.7000768184661865, 71.10313415527344, 0.17270728945732117, 0.12096709758043289, 9.451239585876465, 1.2778751850128174, -1.5250314474105835, 0.5336213707923889, -0.25341796875, -0.239990234375, -0.77978515625, 
35, 605777043, 1.2370718717575073, -1.716640830039978, 71.1173324584961, 0.17874084413051605, 0.127381831407547, 9.452882766723633, 1.3353371620178223, -1.4171888828277588, 0.5061901807785034, -0.2509765625, -0.238525390625, -0.78173828125, 
36, 605793710, 1.254075050354004, -1.7343453168869019, 71.09561157226562, 0.1681870073080063, 0.10857260227203369, 9.422178268432617, 1.4029675722122192, -1.4856774806976318, 0.5815683603286743, -0.25390625, -0.237060546875, -0.77978515625, 
37, 605810377, 1.2698116302490234, -1.7514108419418335, 71.11334991455078, 0.19292302429676056, 0.10721106827259064, 9.447439193725586, 1.3288955688476562, -1.4538793563842773, 0.5335701107978821, -0.2529296875, -0.240478515625, -0.776611328125, 
38, 605827044, 1.2846262454986572, -1.7671279907226562, 71.10462188720703, 0.17388007044792175, 0.12360318005084991, 9.428275108337402, 1.279002070426941, -1.369434118270874, 0.5161278247833252, -0.2529296875, -0.240966796875, -0.77978515625, 
39, 605843711, 1.3001631498336792, -1.7843353748321533, 71.11488342285156, 0.18300071358680725, 0.09771478176116943, 9.435858726501465, 1.3228894472122192, -1.4599108695983887, 0.5992538928985596, -0.25244140625, -0.237548828125, -0.7802734375, 
40, 605860378, 1.3164290189743042, -1.8018760681152344, 71.12202453613281, 0.18696428835391998, 0.10949055105447769, 9.430109024047852, 1.3703498840332031, -1.4821300506591797, 0.5047686696052551, -0.255859375, -0.238037109375, -0.78173828125, 
41, 605877045, 1.331693172454834, -1.8198846578598022, 71.1456298828125, 0.19425134360790253, 0.12536203861236572, 9.448962211608887, 1.315807580947876, -1.50779390335083, 0.5538169741630554, -0.25390625, -0.242431640625, -0.7822265625, 
42, 605893712, 1.3475093841552734, -1.8366683721542358, 71.14326477050781, 0.18148675560951233, 0.11694663017988205, 9.42919921875, 1.3449676036834717, -1.4338374137878418, 0.4906304180622101, -0.25537109375, -0.238525390625, -0.78271484375, 
43, 605910379, 1.3628208637237549, -1.8526427745819092, 71.1657943725586, 0.17642872035503387, 0.10899306833744049, 9.4395170211792, 1.3174209594726562, -1.386069416999817, 0.506881594657898, -0.25390625, -0.238525390625, -0.779296875, 
44, 605927046, 1.3786826133728027, -1.8695005178451538, 71.19546508789062, 0.18467740714550018, 0.13513962924480438, 9.42609691619873, 1.3533685207366943, -1.4418666362762451, 0.5127725601196289, -0.25341796875, -0.238525390625, -0.77880859375, 
45, 605943713, 1.3935643434524536, -1.8858304023742676, 71.17841339111328, 0.1769891083240509, 0.10813962668180466, 9.445068359375, 1.2912321090698242, -1.411285161972046, 0.518855631351471, -0.25146484375, -0.240966796875, -0.78173828125, 
46, 605960380, 1.4084322452545166, -1.902735948562622, 71.15052032470703, 0.18152503669261932, 0.10500644892454147, 9.434991836547852, 1.2962651252746582, -1.4471685886383057, 0.5428931713104248, -0.25, -0.240478515625, -0.77978515625, 
47, 605977047, 1.42349374294281, -1.9200869798660278, 71.1613998413086, 0.18451161682605743, 0.11299938708543777, 9.432064056396484, 1.314936876296997, -1.4744335412979126, 0.6142629981040955, -0.25244140625, -0.243408203125, -0.779296875, 
48, 605993714, 1.4391170740127563, -1.9373985528945923, 71.1421127319336, 0.1886884570121765, 0.11671670526266098, 9.437429428100586, 1.3486430644989014, -1.4744205474853516, 0.5442506670951843, -0.2509765625, -0.243896484375, -0.779296875, 
49, 606010381, 1.4554493427276611, -1.9553654193878174, 71.15359497070312, 0.1824132800102234, 0.10659122467041016, 9.431380271911621, 1.3924217224121094, -1.5150680541992188, 0.5105763673782349, -0.25341796875, -0.238037109375, -0.779296875, 
50, 606027048, 1.4714018106460571, -1.9719334840774536, 71.14185333251953, 0.1693630814552307, 0.10439220070838928, 9.4399995803833, 1.372763752937317, -1.43492591381073, 0.4845922589302063, -0.251953125, -0.239013671875, -0.78271484375, 
51, 606043715, 1.486655831336975, -1.9888994693756104, 71.14265441894531, 0.179320827126503, 0.1130136176943779, 9.460712432861328, 1.3391406536102295, -1.4610379934310913, 0.5663543939590454, -0.25537109375, -0.238525390625, -0.776611328125, 
52, 606060382, 1.5029287338256836, -2.0055127143859863, 71.17379760742188, 0.1775284707546234, 0.11287669092416763, 9.449810981750488, 1.401065707206726, -1.4444793462753296, 0.5269812941551208, -0.25341796875, -0.239013671875, -0.777587890625, 
53, 606077049, 1.5183173418045044, -2.022045612335205, 71.17620849609375, 0.18094603717327118, 0.12422435730695724, 9.458700180053711, 1.3508328199386597, -1.444504737854004, 0.5054217576980591, -0.25390625, -0.242919921875, -0.78173828125, 
54, 606093716, 1.5339393615722656, -2.038461685180664, 71.1650390625, 0.1961447149515152, 0.13175415992736816, 9.42892074584961, 1.3676220178604126, -1.4384987354278564, 0.5379499197006226, -0.25244140625, -0.242919921875, -0.78076171875, 
55, 606110383, 1.5487226247787476, -2.0552940368652344, 71.15074920654297, 0.17175310850143433, 0.10838212817907333, 9.436471939086914, 1.3162685632705688, -1.4649182558059692, 0.5011316537857056, -0.2548828125, -0.242919921875, -0.77880859375, 
56, 606127050, 1.563727855682373, -2.0730040073394775, 71.13858032226562, 0.1748712956905365, 0.10102152824401855, 9.441205024719238, 1.3332241773605347, -1.5232126712799072, 0.4999534785747528, -0.25537109375, -0.239990234375, -0.7783203125, 
57, 606143717, 1.5780925750732422, -2.0891432762145996, 71.14386749267578, 0.1791328638792038, 0.11931739002466202, 9.437088012695312, 1.3019638061523438, -1.4318135976791382, 0.5255404710769653, -0.25634765625, -0.239501953125, -0.78369140625, 
58, 606160384, 1.5927340984344482, -2.1065146923065186, 71.126953125, 0.18577976524829865, 0.12363690882921219, 9.435050964355469, 1.3199440240859985, -1.5110595226287842, 0.4827801287174225, -0.2529296875, -0.239501953125, -0.78173828125, 
59, 606177051, 1.6074140071868896, -2.1232120990753174, 71.12625122070312, 0.18212644755840302, 0.11600363999605179, 9.420721054077148, 1.3264368772506714, -1.472870945930481, 0.5281530022621155, -0.2568359375, -0.239990234375, -0.78076171875, 
60, 606193718, 1.6223030090332031, -2.139082193374634, 71.12945556640625, 0.17681671679019928, 0.12315326929092407, 9.4464111328125, 1.3407031297683716, -1.4277030229568481, 0.4725222587585449, -0.25146484375, -0.236083984375, -0.7802734375, 
61, 606210385, 1.6368250846862793, -2.154317855834961, 71.12739562988281, 0.16811953485012054, 0.12711027264595032, 9.452120780944824, 1.3220572471618652, -1.3947651386260986, 0.4772862195968628, -0.25390625, -0.240478515625, -0.77978515625, 
62, 606227052, 1.6514350175857544, -2.1702327728271484, 71.1262435913086, 0.18519331514835358, 0.11464663594961166, 9.439214706420898, 1.3292925357818604, -1.4414697885513306, 0.4826904833316803, -0.25244140625, -0.243408203125, -0.78076171875, 
63, 606243719, 1.6652120351791382, -2.1862919330596924, 71.12000274658203, 0.18435616791248322, 0.11892939358949661, 9.429119110107422, 1.2865321636199951, -1.452111840248108, 0.5350428819656372, -0.25634765625, -0.240966796875, -0.78173828125, 
64, 606260386, 1.6783006191253662, -2.2018561363220215, 71.1246109008789, 0.1788075864315033, 0.11389639228582382, 9.447809219360352, 1.2456287145614624, -1.4280999898910522, 0.4738157391548157, -0.2529296875, -0.239990234375, -0.7802734375, 
65, 606277053, 1.6911202669143677, -2.218217372894287, 71.12303161621094, 0.1954900324344635, 0.12064632773399353, 9.44357681274414, 1.2357230186462402, -1.4811760187149048, 0.48614180088043213, -0.2509765625, -0.238525390625, -0.779296875, 
66, 606293720, 1.7052860260009766, -2.2347965240478516, 71.12496948242188, 0.18538296222686768, 0.11295658349990845, 9.43589973449707, 1.3211350440979004, -1.4969725608825684, 0.5039746165275574, -0.25341796875, -0.240966796875, -0.77978515625, 
67, 606310387, 1.7182501554489136, -2.251450538635254, 71.12406158447266, 0.18512825667858124, 0.12302611023187637, 9.437561988830566, 1.2548365592956543, -1.5046948194503784, 0.5132465362548828, -0.25244140625, -0.242919921875, -0.77783203125, 
68, 606327054, 1.732928991317749, -2.2677206993103027, 71.11589050292969, 0.17080141603946686, 0.10670280456542969, 9.44400691986084, 1.3615646362304688, -1.48720121383667, 0.5155515670776367, -0.2568359375, -0.241455078125, -0.779296875, 
69, 606343721, 1.7474838495254517, -2.2843806743621826, 71.11207580566406, 0.1837802529335022, 0.11184472590684891, 9.43350601196289, 1.3594774007797241, -1.5177959203720093, 0.4963037073612213, -0.25048828125, -0.238037109375, -0.78515625, 
70, 606360388, 1.76097571849823, -2.3000333309173584, 71.10470581054688, 0.18659110367298126, 0.12684793770313263, 9.441357612609863, 1.300196647644043, -1.4638808965682983, 0.46040746569633484, -0.2529296875, -0.238037109375, -0.7822265625, 
71, 606377055, 1.776093602180481, -2.3145668506622314, 71.10758209228516, 0.17606045305728912, 0.12449777126312256, 9.451007843017578, 1.402557611465454, -1.4009888172149658, 0.48335638642311096, -0.25341796875, -0.240966796875, -0.779296875, 
72, 606393722, 1.7898476123809814, -2.329012632369995, 71.10244750976562, 0.1816217601299286, 0.11267049610614777, 9.449441909790039, 1.3268978595733643, -1.4008992910385132, 0.5206229090690613, -0.25244140625, -0.239501953125, -0.779296875, 
73, 606410389, 1.803242802619934, -2.3457067012786865, 71.10336303710938, 0.19554878771305084, 0.11234443634748459, 9.450030326843262, 1.3125163316726685, -1.5415388345718384, 0.5408954620361328, -0.2529296875, -0.242431640625, -0.776611328125, 
74, 606427056, 1.8167062997817993, -2.36045503616333, 71.0971908569336, 0.19045913219451904, 0.11064158380031586, 9.41828441619873, 1.324349284172058, -1.4287916421890259, 0.5743327140808105, -0.25537109375, -0.242919921875, -0.78076171875, 
75, 606443723, 1.8301550149917603, -2.3746178150177, 71.09322357177734, 0.17790764570236206, 0.11892163753509521, 9.443303108215332, 1.3261806964874268, -1.4015909433364868, 0.47469931840896606, -0.2529296875, -0.239013671875, -0.78173828125, 
76, 606460390, 1.843227505683899, -2.3890609741210938, 71.09944915771484, 0.18615542352199554, 0.12677842378616333, 9.43466854095459, 1.3086872100830078, -1.4262046813964844, 0.4671691954135895, -0.251953125, -0.239990234375, -0.78466796875, 
77, 606477057, 1.8559664487838745, -2.405240058898926, 71.09761810302734, 0.17997333407402039, 0.12121392041444778, 9.436983108520508, 1.2945106029510498, -1.5364800691604614, 0.48956751823425293, -0.25390625, -0.242919921875, -0.7822265625, 
78, 606493724, 1.869312047958374, -2.4201884269714355, 71.1006851196289, 0.18146489560604095, 0.11049843579530716, 9.417222023010254, 1.3392815589904785, -1.4670569896697998, 0.5435078740119934, -0.25341796875, -0.240478515625, -0.77978515625, 
79, 606510391, 1.8832147121429443, -2.435462474822998, 71.10199737548828, 0.17366746068000793, 0.12062891572713852, 9.444801330566406, 1.378674030303955, -1.4957560300827026, 0.5063822865486145, -0.2529296875, -0.240966796875, -0.78125, 
80, 606527058, 1.8963115215301514, -2.4508323669433594, 71.10042572021484, 0.1930493265390396, 0.12475646287202835, 9.433138847351074, 1.3344405889511108, -1.5100605487823486, 0.4663880467414856, -0.25439453125, -0.241943359375, -0.7783203125, 
81, 606543725, 1.9086650609970093, -2.4659430980682373, 71.10198974609375, 0.17488005757331848, 0.11472264677286148, 9.428725242614746, 1.3005423545837402, -1.4981250762939453, 0.5864987373352051, -0.25390625, -0.240966796875, -0.78125, 
82, 606560392, 1.9199975728988647, -2.4802463054656982, 71.1015853881836, 0.18915802240371704, 0.11454090476036072, 9.428365707397461, 1.243451476097107, -1.4598852396011353, 0.49588102102279663, -0.25439453125, -0.240478515625, -0.78173828125, 
83, 606577059, 1.9330086708068848, -2.4937026500701904, 71.10265350341797, 0.19348306953907013, 0.11569806933403015, 9.442046165466309, 1.352446436882019, -1.415857195854187, 0.5235555768013, -0.25390625, -0.239013671875, -0.777587890625, 
84, 606593726, 1.9456841945648193, -2.508523941040039, 71.10719299316406, 0.18352149426937103, 0.1111600250005722, 9.440865516662598, 1.338743805885315, -1.5043491125106812, 0.5219932794570923, -0.2529296875, -0.241455078125, -0.779296875, 
85, 606610393, 1.9582818746566772, -2.5229763984680176, 71.10836029052734, 0.19730788469314575, 0.10519682615995407, 9.458117485046387, 1.3445769548416138, -1.4889237880706787, 0.5659125447273254, -0.25439453125, -0.241943359375, -0.78076171875, 
86, 606627060, 1.9708865880966187, -2.5369818210601807, 71.10811614990234, 0.1900363564491272, 0.12225481122732162, 9.442381858825684, 1.3524144887924194, -1.470565915107727, 0.5384173393249512, -0.2548828125, -0.239990234375, -0.78076171875, 
87, 606643727, 1.982360601425171, -2.55138897895813, 71.1135025024414, 0.16234229505062103, 0.12378361076116562, 9.449942588806152, 1.2928842306137085, -1.5008784532546997, 0.5662647485733032, -0.25341796875, -0.239013671875, -0.778076171875, 
88, 606660394, 1.9939298629760742, -2.5658626556396484, 71.11753845214844, 0.1812262386083603, 0.12365132570266724, 9.42922306060791, 1.3047940731048584, -1.51683509349823, 0.5507562160491943, -0.25390625, -0.237548828125, -0.779296875, 
89, 606677061, 2.0049021244049072, -2.5811166763305664, 71.12117767333984, 0.18544955551624298, 0.11711101233959198, 9.45602798461914, 1.2725541591644287, -1.5745790004730225, 0.47120964527130127, -0.25439453125, -0.239501953125, -0.776611328125, 
90, 606693728, 2.0165319442749023, -2.5946044921875, 71.12554931640625, 0.1762329638004303, 0.1184709370136261, 9.440003395080566, 1.323683500289917, -1.4753940105438232, 0.536528468132019, -0.25146484375, -0.240966796875, -0.7802734375, 
91, 606710395, 2.027656316757202, -2.608548641204834, 71.12550354003906, 0.1887611299753189, 0.11762657761573792, 9.422285079956055, 1.2990696430206299, -1.512686014175415, 0.504883885383606, -0.25341796875, -0.239501953125, -0.78125, 
92, 606727062, 2.038405418395996, -2.620957374572754, 71.12966918945312, 0.19195976853370667, 0.10041652619838715, 9.428443908691406, 1.2863017320632935, -1.4292783737182617, 0.5339543223381042, -0.25390625, -0.239501953125, -0.78076171875, 
93, 606743729, 2.051262855529785, -2.6349945068359375, 71.13233184814453, 0.1775103509426117, 0.10958024114370346, 9.428857803344727, 1.4221707582473755, -1.535507082939148, 0.5176070332527161, -0.25439453125, -0.240478515625, -0.78173828125, 
94, 606760396, 2.06213641166687, -2.648136615753174, 71.13451385498047, 0.17091995477676392, 0.12625053524971008, 9.447961807250977, 1.3130927085876465, -1.4916452169418335, 0.5419711470603943, -0.25537109375, -0.239990234375, -0.776611328125, 
95, 606777063, 2.0727646350860596, -2.660309314727783, 71.13751983642578, 0.18173938989639282, 0.12191753089427948, 9.457024574279785, 1.3045251369476318, -1.4447098970413208, 0.5068305134773254, -0.25439453125, -0.239990234375, -0.78173828125, 
96, 606793730, 2.084148406982422, -2.6723875999450684, 71.1383056640625, 0.1719263345003128, 0.11671198904514313, 9.437634468078613, 1.3560962677001953, -1.4508057832717896, 0.46407005190849304, -0.2529296875, -0.238525390625, -0.7822265625, 
97, 606810397, 2.094482183456421, -2.6851282119750977, 71.13945007324219, 0.17030493915081024, 0.1203174889087677, 9.411162376403809, 1.3023736476898193, -1.5013139247894287, 0.46123984456062317, -0.251953125, -0.241943359375, -0.78369140625, 
98, 606827064, 2.10499906539917, -2.6960666179656982, 71.13733673095703, 0.17408673465251923, 0.11001233011484146, 9.452855110168457, 1.324221134185791, -1.401808500289917, 0.528575599193573, -0.2509765625, -0.243408203125, -0.77978515625, 
99, 606843731, 2.1164724826812744, -2.7070982456207275, 71.13301849365234, 0.1827673763036728, 0.12112979590892792, 9.435729026794434, 1.3920180797576904, -1.4180469512939453, 0.5216985940933228, -0.2509765625, -0.243408203125, -0.776611328125, 
100, 606860398, 2.127180337905884, -2.7185583114624023, 71.12816619873047, 0.17033153772354126, 0.10539896041154861, 9.424240112304688, 1.3565189838409424, -1.45308518409729, 0.56087327003479, -0.25341796875, -0.241455078125, -0.78125, 
101, 606877065, 2.138282537460327, -2.7289483547210693, 71.12849426269531, 0.16277733445167542, 0.12865786254405975, 9.426613807678223, 1.391173005104065, -1.3987094163894653, 0.5885733962059021, -0.2529296875, -0.240966796875, -0.78125, 
102, 606893732, 2.1483192443847656, -2.7415921688079834, 71.12589263916016, 0.18527111411094666, 0.126771941781044, 9.4323091506958, 1.3286778926849365, -1.5511306524276733, 0.4462052285671234, -0.25244140625, -0.241455078125, -0.7802734375, 
103, 606910399, 2.157670497894287, -2.752528429031372, 71.12445068359375, 0.1783311665058136, 0.11328522861003876, 9.43428897857666, 1.3038208484649658, -1.4538536071777344, 0.5850260257720947, -0.25244140625, -0.240966796875, -0.779296875, 
104, 606927066, 2.167396306991577, -2.7635538578033447, 71.12427520751953, 0.1744682788848877, 0.10203982889652252, 9.428701400756836, 1.3360031843185425, -1.469413161277771, 0.5993819832801819, -0.25146484375, -0.240478515625, -0.78173828125, 
105, 606943733, 2.1767311096191406, -2.774280548095703, 71.12230682373047, 0.1743009239435196, 0.11237731575965881, 9.433094024658203, 1.3206803798675537, -1.4656994342803955, 0.5357024669647217, -0.2529296875, -0.239501953125, -0.77880859375, 
106, 606960400, 2.1859912872314453, -2.784512519836426, 71.1244125366211, 0.18275925517082214, 0.12661807239055634, 9.425908088684082, 1.3282297849655151, -1.445350170135498, 0.571182370185852, -0.2509765625, -0.241455078125, -0.777099609375, 
107, 606977067, 2.194917917251587, -2.794689655303955, 71.12062072753906, 0.16808968782424927, 0.10854016244411469, 9.425724029541016, 1.3130797147750854, -1.456850290298462, 0.4864940047264099, -0.2548828125, -0.238037109375, -0.777587890625, 
108, 606993734, 2.2030301094055176, -2.8052585124969482, 71.12926483154297, 0.18711678683757782, 0.12023307383060455, 9.430062294006348, 1.278809905052185, -1.4883410930633545, 0.5757157802581787, -0.25439453125, -0.240478515625, -0.78125, 
109, 607010401, 2.2113871574401855, -2.815912961959839, 71.13179016113281, 0.18706582486629486, 0.12147048115730286, 9.44031810760498, 1.3007920980453491, -1.5065196752548218, 0.5395314693450928, -0.2470703125, -0.241455078125, -0.7802734375, 
110, 607027068, 2.2207086086273193, -2.825234889984131, 71.12348175048828, 0.18876908719539642, 0.11286766082048416, 9.451836585998535, 1.3649646043777466, -1.440022587776184, 0.454561322927475, -0.25048828125, -0.237060546875, -0.7802734375, 
111, 607043735, 2.22847318649292, -2.833976984024048, 71.1237564086914, 0.195217564702034, 0.09729406982660294, 9.451506614685059, 1.2853925228118896, -1.414294719696045, 0.5133233070373535, -0.2529296875, -0.241943359375, -0.77783203125, 
112, 607060402, 2.237164258956909, -2.8436670303344727, 71.12030029296875, 0.17267604172229767, 0.12297910451889038, 9.447126388549805, 1.3479642868041992, -1.4836026430130005, 0.4444379210472107, -0.255859375, -0.238525390625, -0.7802734375, 
113, 607077069, 2.2443838119506836, -2.8530609607696533, 71.12812805175781, 0.1771371215581894, 0.11337170749902725, 9.458576202392578, 1.2751216888427734, -1.4741259813308716, 0.5485151410102844, -0.25146484375, -0.242431640625, -0.77978515625, 
114, 607093736, 2.2523226737976074, -2.8615682125091553, 71.12336730957031, 0.17631518840789795, 0.11773949861526489, 9.434808731079102, 1.3313672542572021, -1.4319931268692017, 0.5855638980865479, -0.2509765625, -0.240966796875, -0.7802734375, 
115, 607110403, 2.259498119354248, -2.868701457977295, 71.12060546875, 0.1763894110918045, 0.12384945899248123, 9.465055465698242, 1.2919236421585083, -1.3632999658584595, 0.5251307487487793, -0.255859375, -0.239990234375, -0.776611328125, 
116, 607127070, 2.2672643661499023, -2.8774640560150146, 71.12268829345703, 0.1725347340106964, 0.1334594488143921, 9.457703590393066, 1.3362592458724976, -1.47419011592865, 0.49947962164878845, -0.25244140625, -0.241455078125, -0.7802734375, 
117, 607143737, 2.274930953979492, -2.8848793506622314, 71.12074279785156, 0.19131025671958923, 0.11634869128465652, 9.448592185974121, 1.3425791263580322, -1.4031339883804321, 0.5616864562034607, -0.25732421875, -0.240478515625, -0.78271484375, 
118, 607160404, 2.2822279930114746, -2.894090414047241, 71.1253890991211, 0.18145284056663513, 0.11384286731481552, 9.432021141052246, 1.3276726007461548, -1.5249481201171875, 0.5017271041870117, -0.25390625, -0.239501953125, -0.77880859375, 
119, 607177071, 0.6966514587402344, -1.1219481229782104, 70.65733337402344, 0.17800943553447723, 0.10464172065258026, 9.448486328125, 1.320225715637207, -1.5062443017959595, 0.49244895577430725, -0.25537109375, -0.240478515625, -0.7802734375, 
120, 607193738, 0.6978437900543213, -1.122902750968933, 70.65693664550781, 0.19866836071014404, 0.09738215804100037, 9.418636322021484, 1.389687418937683, -1.5128909349441528, 0.5162431597709656, -0.25341796875, -0.241455078125, -0.77880859375, 
121, 607210405, 0.6978358626365662, -1.1218619346618652, 70.6573486328125, 0.1792716085910797, 0.10893857479095459, 9.455182075500488, 1.3190219402313232, -1.3930490016937256, 0.5628454089164734, -0.25244140625, -0.240478515625, -0.779296875, 
122, 607227072, 0.6974081993103027, -1.1230307817459106, 70.65608978271484, 0.18315590918064117, 0.12676268815994263, 9.448884010314941, 1.2925127744674683, -1.526990532875061, 0.4740462303161621, -0.25341796875, -0.238525390625, -0.777587890625, 
123, 607243739, 0.6975562572479248, -1.1230086088180542, 70.65919494628906, 0.18878643214702606, 0.12379148602485657, 9.426959037780762, 1.3278453350067139, -1.4550443887710571, 0.5132207274436951, -0.25341796875, -0.239013671875, -0.779296875, 
124, 607260406, 0.6983411908149719, -1.1239608526229858, 70.6616439819336, 0.15562406182289124, 0.11317828297615051, 9.424009323120117, 1.3669050931930542, -1.513428807258606, 0.5218140482902527, -0.25390625, -0.242431640625, -0.78173828125, 
125, 607277073, 0.6984409689903259, -1.124090313911438, 70.65996551513672, 0.16942667961120605, 0.12069310247898102, 9.44705581665039, 1.3248422145843506, -1.4661283493041992, 0.49555444717407227, -0.25048828125, -0.240966796875, -0.77978515625, 
126, 607293740, 0.698093056678772, -1.1244568824768066, 70.65606689453125, 0.17406798899173737, 0.10871941596269608, 9.429305076599121, 1.2987110614776611, -1.480452537536621, 0.5039874315261841, -0.255859375, -0.239990234375, -0.78076171875, 
127, 607310407, 0.6991288661956787, -1.1248195171356201, 70.6602783203125, 0.1757444143295288, 0.1119018942117691, 9.421076774597168, 1.3829383850097656, -1.4807724952697754, 0.5246697664260864, -0.2548828125, -0.241455078125, -0.77880859375, 
128, 607327074, 0.6995795965194702, -1.1238778829574585, 70.6628189086914, 0.18620730936527252, 0.12173932790756226, 9.451507568359375, 1.3495008945465088, -1.401667594909668, 0.5925048589706421, -0.251953125, -0.241943359375, -0.78271484375, 
129, 607343741, 0.6991623640060425, -1.1246494054794312, 70.65895080566406, 0.1928476095199585, 0.12434268742799759, 9.4329252243042, 1.2939599752426147, -1.5061931610107422, 0.45970311760902405, -0.255859375, -0.239501953125, -0.779296875, 
130, 607360408, 0.6999620199203491, -1.123461127281189, 70.6646499633789, 0.18619883060455322, 0.12040408700704575, 9.442042350769043, 1.3702729940414429, -1.3877984285354614, 0.5653170347213745, -0.25244140625, -0.241943359375, -0.77978515625, 
131, 607377075, 0.7002977132797241, -1.1241222620010376, 70.66299438476562, 0.19644689559936523, 0.10855355113744736, 9.44692611694336, 1.3411641120910645, -1.4983941316604614, 0.5607708096504211, -0.2509765625, -0.241943359375, -0.779296875, 
132, 607393742, 0.6998341679573059, -1.1226667165756226, 70.65978240966797, 0.1795976161956787, 0.11189569532871246, 9.448025703430176, 1.2950098514556885, -1.3715087175369263, 0.5653682351112366, -0.2548828125, -0.240478515625, -0.779296875, 
133, 607410409, 0.7004606127738953, -1.122322678565979, 70.66091918945312, 0.17566639184951782, 0.12413932383060455, 9.454341888427734, 1.3571721315383911, -1.440227746963501, 0.4390592575073242, -0.25537109375, -0.240478515625, -0.779296875, 
134, 607427076, 0.7005561590194702, -1.1232017278671265, 70.66358947753906, 0.18274492025375366, 0.11283035576343536, 9.433685302734375, 1.326737642288208, -1.51246178150177, 0.4894202649593353, -0.25439453125, -0.237548828125, -0.776123046875, 
135, 607443743, 0.7012409567832947, -1.1220272779464722, 70.66849517822266, 0.17674514651298523, 0.10861444473266602, 9.45202350616455, 1.3627493381500244, -1.3903533220291138, 0.49911463260650635, -0.25146484375, -0.241455078125, -0.779296875, 
136, 607460410, 0.7009707689285278, -1.120719313621521, 70.66502380371094, 0.1739291399717331, 0.10858430713415146, 9.447912216186523, 1.3058314323425293, -1.3819332122802734, 0.48578962683677673, -0.25390625, -0.238525390625, -0.77880859375, 
137, 607477077, 0.7013589143753052, -1.1199854612350464, 70.66752624511719, 0.1966051310300827, 0.10521867871284485, 9.428670883178711, 1.3449803590774536, -1.417445182800293, 0.4618033468723297, -0.25537109375, -0.239990234375, -0.779296875, 
138, 607493744, 0.7010201215744019, -1.1213090419769287, 70.67208862304688, 0.19454717636108398, 0.11452491581439972, 9.449721336364746, 1.3032958507537842, -1.539771556854248, 0.5647664666175842, -0.25537109375, -0.240966796875, -0.78076171875, 
139, 607510411, 0.700958788394928, -1.1213222742080688, 70.67386627197266, 0.17657984793186188, 0.11399959772825241, 9.431870460510254, 1.3190538883209229, -1.4616589546203613, 0.4875504970550537, -0.251953125, -0.242431640625, -0.7802734375, 
140, 607527078, 0.7002648711204529, -1.1207890510559082, 70.67202758789062, 0.1795533150434494, 0.11562182009220123, 9.445698738098145, 1.2829400300979614, -1.4283241033554077, 0.5837134122848511, -0.25439453125, -0.239990234375, -0.77978515625, 
141, 607543745, 0.7004735469818115, -1.1190986633300781, 70.67369842529297, 0.18235701322555542, 0.124426931142807, 9.455472946166992, 1.3359005451202393, -1.3600085973739624, 0.49326851963996887, -0.25146484375, -0.241455078125, -0.78125, 
142, 607560412, 0.7013508081436157, -1.119545578956604, 70.67132568359375, 0.17635585367679596, 0.12049423903226852, 9.43431282043457, 1.376099944114685, -1.48794424533844, 0.511171817779541, -0.255859375, -0.240966796875, -0.779296875, 
143, 607577079, 0.7011426687240601, -1.1181294918060303, 70.67393493652344, 0.18618160486221313, 0.11894317716360092, 9.453425407409668, 1.3104417324066162, -1.3769001960754395, 0.4969823956489563, -0.251953125, -0.238525390625, -0.78076171875, 
144, 607593746, 0.7011491060256958, -1.1176269054412842, 70.6750259399414, 0.1764712929725647, 0.11853208392858505, 9.444265365600586, 1.324118733406067, -1.431749701499939, 0.5071249604225159, -0.25390625, -0.238037109375, -0.776611328125, 
145, 607610413, 0.7001083493232727, -1.1165755987167358, 70.67804718017578, 0.18451668322086334, 0.11349111050367355, 9.43794059753418, 1.2608362436294556, -1.398715853691101, 0.49095699191093445, -0.25, -0.240478515625, -0.77880859375, 
146, 607627080, 0.6992793679237366, -1.1157722473144531, 70.67448425292969, 0.17609792947769165, 0.12941399216651917, 9.427787780761719, 1.2740906476974487, -1.4133917093276978, 0.4999854266643524, -0.25244140625, -0.238037109375, -0.778076171875, 
147, 607643747, 0.6995636224746704, -1.116013526916504, 70.67646026611328, 0.1796456128358841, 0.12355263531208038, 9.44198989868164, 1.3412792682647705, -1.47676420211792, 0.5193679332733154, -0.2529296875, -0.239013671875, -0.779296875, 
148, 607660414, 0.6998415589332581, -1.1159476041793823, 70.67811584472656, 0.1671379804611206, 0.11494874954223633, 9.445475578308105, 1.340434193611145, -1.4581308364868164, 0.5114791989326477, -0.25341796875, -0.239501953125, -0.78173828125, 
149, 607677081, 0.7003287076950073, -1.1167939901351929, 70.67996978759766, 0.1831502765417099, 0.11920728534460068, 9.461084365844727, 1.3537400960922241, -1.5133905410766602, 0.5356448292732239, -0.25244140625, -0.239501953125, -0.78076171875, 
150, 607693748, 0.6997730135917664, -1.1162688732147217, 70.68051147460938, 0.18266543745994568, 0.10057931393384933, 9.452454566955566, 1.2909505367279053, -1.43117356300354, 0.5180360078811646, -0.25390625, -0.239501953125, -0.77978515625, 
151, 607710415, 0.69950270652771, -1.1167148351669312, 70.68218994140625, 0.18607456982135773, 0.10985129326581955, 9.441924095153809, 1.3076497316360474, -1.4902746677398682, 0.496265172958374, -0.25146484375, -0.240966796875, -0.7802734375, 
152, 607727082, 0.6991316676139832, -1.1154273748397827, 70.68081665039062, 0.18749618530273438, 0.10289192199707031, 9.447197914123535, 1.3033212423324585, -1.384353518486023, 0.5531638264656067, -0.2529296875, -0.241943359375, -0.78173828125, 
153, 607743749, 0.6986079216003418, -1.1143372058868408, 70.67948150634766, 0.18026407063007355, 0.10846531391143799, 9.431154251098633, 1.2934027910232544, -1.3972944021224976, 0.5292863845825195, -0.25341796875, -0.241943359375, -0.77783203125, 
154, 607760416, 0.6979666948318481, -1.1129131317138672, 70.68000030517578, 0.18314716219902039, 0.11997944116592407, 9.441654205322266, 1.2884083986282349, -1.376420021057129, 0.5944579243659973, -0.255126953125, -0.243408203125, -0.77783203125, 
155, 607777083, 0.698672890663147, -1.1128549575805664, 70.67920684814453, 0.18313172459602356, 0.11627133935689926, 9.443134307861328, 1.368236780166626, -1.4597060680389404, 0.5311368703842163, -0.2568359375, -0.239990234375, -0.78076171875, 
156, 607793750, 0.6980211734771729, -1.1115632057189941, 70.68412017822266, 0.16798035800457, 0.11330781877040863, 9.445638656616211, 1.2869035005569458, -1.3851345777511597, 0.5504744648933411, -0.2509765625, -0.238037109375, -0.78076171875, 
157, 607810417, 0.6987561583518982, -1.1130300760269165, 70.68492889404297, 0.18592345714569092, 0.10427209734916687, 9.443474769592285, 1.3700873851776123, -1.550458550453186, 0.5437064170837402, -0.25341796875, -0.240966796875, -0.77978515625, 
158, 607827084, 0.6992427706718445, -1.1122502088546753, 70.68449401855469, 0.18946409225463867, 0.12003659456968307, 9.427044868469238, 1.355001449584961, -1.416670322418213, 0.48679494857788086, -0.25390625, -0.238037109375, -0.78076171875, 
159, 607843751, 0.7005683779716492, -1.1108927726745605, 70.68756103515625, 0.18650780618190765, 0.1146322712302208, 9.425196647644043, 1.4052343368530273, -1.3822916746139526, 0.5037185549736023, -0.251953125, -0.238525390625, -0.78125, 
160, 607860418, 0.7017622590065002, -1.1112422943115234, 70.68893432617188, 0.1824139803647995, 0.116120845079422, 9.431272506713867, 1.398024320602417, -1.4835387468338013, 0.5440457463264465, -0.25244140625, -0.237548828125, -0.778564453125, 
161, 607877085, 0.7018759846687317, -1.1110548973083496, 70.6919937133789, 0.18115133047103882, 0.10582203418016434, 9.437918663024902, 1.3340181112289429, -1.452060580253601, 0.5559171438217163, -0.2529296875, -0.239501953125, -0.7783203125, 
162, 607893752, 0.7025870680809021, -1.111087679862976, 70.6929931640625, 0.1763542890548706, 0.11718791723251343, 9.440690994262695, 1.3688257932662964, -1.4650591611862183, 0.5223261713981628, -0.2529296875, -0.238525390625, -0.776611328125, 
163, 607910419, 0.7013317942619324, -1.1112436056137085, 70.69532775878906, 0.19185581803321838, 0.11558233201503754, 9.433659553527832, 1.251186728477478, -1.4720898866653442, 0.5397940278053284, -0.25537109375, -0.240478515625, -0.7822265625, 
164, 607927086, 0.7012067437171936, -1.1114641427993774, 70.69677734375, 0.17194032669067383, 0.12207697331905365, 9.458040237426758, 1.3185224533081055, -1.4775710105895996, 0.4719587564468384, -0.25244140625, -0.240966796875, -0.7802734375, 
165, 607943753, 0.7005429267883301, -1.110844373703003, 70.69698333740234, 0.17534998059272766, 0.11078688502311707, 9.454313278198242, 1.2878512144088745, -1.4252184629440308, 0.5837838053703308, -0.251953125, -0.238525390625, -0.78076171875, 
166, 607960420, 0.7012145519256592, -1.1103742122650146, 70.69843292236328, 0.1767011284828186, 0.1183025911450386, 9.430212020874023, 1.3670200109481812, -1.435450792312622, 0.5517679452896118, -0.25341796875, -0.239990234375, -0.7783203125, 
167, 607977087, 0.7010268568992615, -1.1119604110717773, 70.70040130615234, 0.17924189567565918, 0.12401696294546127, 9.43465518951416, 1.3169026374816895, -1.5574315786361694, 0.592831552028656, -0.255859375, -0.240966796875, -0.7802734375, 
168, 607993754, 0.7006152868270874, -1.1118066310882568, 70.70366668701172, 0.1824662983417511, 0.11684717983007431, 9.436223983764648, 1.303430199623108, -1.4539240598678589, 0.5915765166282654, -0.251953125, -0.239013671875, -0.77978515625, 
169, 608010421, 0.6997165083885193, -1.1123615503311157, 70.70361328125, 0.17762313783168793, 0.11818235367536545, 9.427701950073242, 1.2731176614761353, -1.4970495700836182, 0.5169667601585388, -0.2529296875, -0.241455078125, -0.783203125, 
170, 608027088, 0.6986818313598633, -1.111758828163147, 70.70246124267578, 0.17481301724910736, 0.12218943238258362, 9.445544242858887, 1.2640057802200317, -1.42815101146698, 0.5125548243522644, -0.25439453125, -0.240966796875, -0.78076171875, 
171, 608043755, 0.6991279721260071, -1.1112984418869019, 70.70311737060547, 0.1793895661830902, 0.11659162491559982, 9.434008598327637, 1.3530548810958862, -1.437026023864746, 0.5038657784461975, -0.25439453125, -0.240966796875, -0.777099609375, 
172, 608060422, 0.6997473835945129, -1.1103565692901611, 70.70415496826172, 0.1869908720254898, 0.12111163139343262, 9.433552742004395, 1.364676594734192, -1.4072128534317017, 0.5410234332084656, -0.25390625, -0.237548828125, -0.779296875, 
173, 608077089, 0.7008058428764343, -1.1094626188278198, 70.7074966430664, 0.1712658554315567, 0.11608963459730148, 9.43272590637207, 1.3902380466461182, -1.4105679988861084, 0.5007987022399902, -0.2568359375, -0.239013671875, -0.77978515625, 
174, 608093756, 0.7020655870437622, -1.1084387302398682, 70.71078491210938, 0.18100006878376007, 0.1280626654624939, 9.446337699890137, 1.400854468345642, -1.4033581018447876, 0.45173755288124084, -0.25439453125, -0.238037109375, -0.78076171875, 
175, 608110423, 0.7019813656806946, -1.1089755296707153, 70.7149658203125, 0.17429879307746887, 0.11628346145153046, 9.44529914855957, 1.3228766918182373, -1.4959352016448975, 0.5718995332717896, -0.25537109375, -0.241943359375, -0.776123046875, 
176, 608127090, 0.7022627592086792, -1.1085553169250488, 70.71613311767578, 0.18174216151237488, 0.11070893704891205, 9.431751251220703, 1.3433796167373657, -1.4394208192825317, 0.5289854407310486, -0.25390625, -0.242919921875, -0.78076171875, 
177, 608143757, 0.7019625902175903, -1.10743248462677, 70.71434783935547, 0.1723003089427948, 0.11770383268594742, 9.434281349182129, 1.3078675270080566, -1.3977617025375366, 0.48621219396591187, -0.25439453125, -0.240966796875, -0.77880859375, 
178, 608160424, 0.7033545970916748, -1.1065733432769775, 70.71625518798828, 0.19096364080905914, 0.12291906774044037, 9.437496185302734, 1.412495493888855, -1.4121304750442505, 0.5869853496551514, -0.251953125, -0.239013671875, -0.78076171875, 
179, 608177091, 0.7033292055130005, -1.1075925827026367, 70.7161865234375, 0.19712357223033905, 0.11261697113513947, 9.434489250183105, 1.324643850326538, -1.5257741212844849, 0.5188044309616089, -0.2529296875, -0.239013671875, -0.778076171875, 
180, 608193758, 0.7024472951889038, -1.1088868379592896, 70.71703338623047, 0.18151411414146423, 0.11345653235912323, 9.427813529968262, 1.2742317914962769, -1.5416858196258545, 0.5147383809089661, -0.2548828125, -0.239501953125, -0.78125, 
181, 608210425, 0.7030906081199646, -1.1083287000656128, 70.72074127197266, 0.18535470962524414, 0.10063417255878448, 9.454633712768555, 1.3665143251419067, -1.430257797241211, 0.5688195824623108, -0.255859375, -0.239501953125, -0.78173828125, 
182, 608227092, 0.7027283310890198, -1.1086409091949463, 70.72417449951172, 0.17776478826999664, 0.11384095996618271, 9.442797660827637, 1.3062283992767334, -1.483154535293579, 0.5352862477302551, -0.251953125, -0.239990234375, -0.77880859375, 
183, 608243759, 0.7036373615264893, -1.1091639995574951, 70.7232666015625, 0.17061647772789001, 0.10959458351135254, 9.432153701782227, 1.3818243741989136, -1.495384693145752, 0.49910828471183777, -0.25390625, -0.235595703125, -0.7802734375, 
184, 608260426, 0.7042568922042847, -1.1104856729507446, 70.72773742675781, 0.1939074844121933, 0.10996347665786743, 9.443613052368164, 1.364971399307251, -1.5435237884521484, 0.5466582775115967, -0.2529296875, -0.240966796875, -0.77978515625, 
185, 608277093, 0.7046353816986084, -1.1106431484222412, 70.72721862792969, 0.17329081892967224, 0.12227394431829453, 9.450411796569824, 1.3498212099075317, -1.474727988243103, 0.49143722653388977, -0.25341796875, -0.239990234375, -0.77880859375, 
186, 608293760, 0.7058612108230591, -1.1109120845794678, 70.72672271728516, 0.18647907674312592, 0.11686286330223083, 9.441911697387695, 1.400009274482727, -1.4809134006500244, 0.4543628692626953, -0.255859375, -0.240478515625, -0.77978515625, 
187, 608310427, 0.705244779586792, -1.1107933521270752, 70.72875213623047, 0.1843329221010208, 0.12173657864332199, 9.454187393188477, 1.2902077436447144, -1.457656979560852, 0.5326224565505981, -0.25439453125, -0.240966796875, -0.7802734375, 
188, 608327094, 0.7052412033081055, -1.1119284629821777, 70.73028564453125, 0.19309549033641815, 0.1208859235048294, 9.435566902160645, 1.328774094581604, -1.5313321352005005, 0.5986456274986267, -0.2529296875, -0.239013671875, -0.78173828125, 
189, 608343761, 0.7052149176597595, -1.1124926805496216, 70.732421875, 0.18188859522342682, 0.12069033086299896, 9.427772521972656, 1.3284473419189453, -1.4968957901000977, 0.5982037782669067, -0.25244140625, -0.239990234375, -0.779296875, 
190, 608360428, 0.7049053311347961, -1.1132142543792725, 70.73356628417969, 0.1891702562570572, 0.12544207274913788, 9.431903839111328, 1.310057520866394, -1.5074865818023682, 0.5936191082000732, -0.25732421875, -0.238525390625, -0.779296875, 
191, 608377095, 0.7054352164268494, -1.1134254932403564, 70.73660278320312, 0.1861681044101715, 0.10716932266950607, 9.44318675994873, 1.3599125146865845, -1.476712942123413, 0.5362594127655029, -0.2568359375, -0.240478515625, -0.776123046875, 
192, 608393762, 0.7056039571762085, -1.115095853805542, 70.74068450927734, 0.18612904846668243, 0.12031742185354233, 9.422436714172363, 1.3382060527801514, -1.5634633302688599, 0.5576460957527161, -0.25146484375, -0.239990234375, -0.776611328125, 
193, 608410429, 0.7051876783370972, -1.1147375106811523, 70.74003601074219, 0.17981083691120148, 0.12023349106311798, 9.428092002868652, 1.303205966949463, -1.4429168701171875, 0.5414204001426697, -0.25146484375, -0.240478515625, -0.778076171875, 
194, 608427096, 0.705107569694519, -1.1140530109405518, 70.73800659179688, 0.18539434671401978, 0.12257585674524307, 9.44819450378418, 1.323107123374939, -1.4227471351623535, 0.5185098648071289, -0.25390625, -0.240966796875, -0.783203125, 
195, 608443763, 0.7061873078346252, -1.1141643524169922, 70.73703002929688, 0.16404041647911072, 0.10422763228416443, 9.440804481506348, 1.3912497758865356, -1.4721026420593262, 0.456783264875412, -0.25341796875, -0.237548828125, -0.7861328125, 
196, 608460430, 0.7062110900878906, -1.114243507385254, 70.73915100097656, 0.16828233003616333, 0.12414270639419556, 9.435773849487305, 1.3286906480789185, -1.4691569805145264, 0.5102112889289856, -0.2548828125, -0.240966796875, -0.783203125, 
197, 608477097, 0.7069462537765503, -1.1137419939041138, 70.74048614501953, 0.1819337159395218, 0.11751183867454529, 9.401508331298828, 1.3726869821548462, -1.433997392654419, 0.5669626593589783, -0.2548828125, -0.238037109375, -0.779296875, 
198, 608493764, 0.7061530947685242, -1.1141630411148071, 70.74365997314453, 0.1784338653087616, 0.10401801019906998, 9.449419021606445, 1.2802249193191528, -1.4904154539108276, 0.5164031386375427, -0.25341796875, -0.241943359375, -0.77978515625, 
199, 608510431, 0.706347644329071, -1.1138098239898682, 70.74378204345703, 0.17643563449382782, 0.09490767121315002, 9.42683219909668, 1.3408182859420776, -1.4424688816070557, 0.5916085839271545, -0.25634765625, -0.239013671875, -0.7822265625, 
200, 608527098, 0.706476628780365, -1.113075852394104, 70.7473373413086, 0.17708829045295715, 0.11669367551803589, 9.444975852966309, 1.3360480070114136, -1.420230507850647, 0.5285692811012268, -0.25146484375, -0.241943359375, -0.77978515625, 
201, 608543765, 0.7055729627609253, -1.112581729888916, 70.74208068847656, 0.18194544315338135, 0.11583024263381958, 9.434988021850586, 1.2745389938354492, -1.4354188442230225, 0.5162239670753479, -0.2529296875, -0.238525390625, -0.7822265625, 
202, 608560432, 0.7058982849121094, -1.1125670671463013, 70.74288940429688, 0.18002861738204956, 0.1182476133108139, 9.442831993103027, 1.3468116521835327, -1.4647389650344849, 0.488799124956131, -0.2548828125, -0.239013671875, -0.779296875, 
203, 608577099, 0.7060734033584595, -1.1125733852386475, 70.74514770507812, 0.17019695043563843, 0.1079656183719635, 9.447783470153809, 1.3401395082473755, -1.4643163681030273, 0.5802108645439148, -0.25537109375, -0.239501953125, -0.77880859375, 
204, 608593766, 0.7058423757553101, -1.1112967729568481, 70.74921417236328, 0.18368254601955414, 0.1134393960237503, 9.449459075927734, 1.315609097480774, -1.3878751993179321, 0.5733402371406555, -0.25244140625, -0.238525390625, -0.7802734375, 
205, 608610433, 0.7061094641685486, -1.1103049516677856, 70.75060272216797, 0.17996163666248322, 0.11167671531438828, 9.459664344787598, 1.3437765836715698, -1.4063036441802979, 0.47266313433647156, -0.2548828125, -0.239990234375, -0.77978515625, 
206, 608627100, 0.7056485414505005, -1.1096374988555908, 70.75336456298828, 0.1864483803510666, 0.11070776730775833, 9.438464164733887, 1.3022326231002808, -1.424411654472351, 0.5795192122459412, -0.25341796875, -0.240478515625, -0.77978515625, 
207, 608643767, 0.706099808216095, -1.1105144023895264, 70.75513458251953, 0.19801610708236694, 0.09918740391731262, 9.437920570373535, 1.3570313453674316, -1.5160927772521973, 0.5881892442703247, -0.25634765625, -0.239501953125, -0.77978515625, 
208, 608660434, 0.706366777420044, -1.1100481748580933, 70.75640869140625, 0.18209701776504517, 0.11524557322263718, 9.422967910766602, 1.3429632186889648, -1.437941551208496, 0.46494725346565247, -0.25341796875, -0.241455078125, -0.7783203125, 
209, 608677101, 0.7063239812850952, -1.1101092100143433, 70.75372314453125, 0.17360056936740875, 0.09644975513219833, 9.436846733093262, 1.3266481161117554, -1.4678059816360474, 0.5326032638549805, -0.255859375, -0.239501953125, -0.78125, 
210, 608693768, 0.7067857980728149, -1.1102325916290283, 70.7564468383789, 0.17391914129257202, 0.12060415744781494, 9.4280366897583, 1.3562947511672974, -1.4729030132293701, 0.4805838465690613, -0.2529296875, -0.242431640625, -0.78076171875, 
211, 608710435, 0.7067768573760986, -1.1103469133377075, 70.751220703125, 0.1714838296175003, 0.1101154088973999, 9.442585945129395, 1.325751781463623, -1.4731208086013794, 0.40395069122314453, -0.2529296875, -0.240478515625, -0.779296875, 
212, 608727102, 0.7072889804840088, -1.11004638671875, 70.75029754638672, 0.17891265451908112, 0.10988269001245499, 9.441534996032715, 1.3602776527404785, -1.4474055767059326, 0.5039938688278198, -0.251953125, -0.240478515625, -0.78173828125, 
213, 608743769, 0.7069051265716553, -1.109764814376831, 70.74810791015625, 0.18478797376155853, 0.1214422807097435, 9.447986602783203, 1.3051015138626099, -1.4490513801574707, 0.4827673137187958, -0.25634765625, -0.239013671875, -0.77880859375, 
214, 608760436, 0.7071691155433655, -1.111029863357544, 70.74664306640625, 0.17081858217716217, 0.11967305839061737, 9.445347785949707, 1.3443913459777832, -1.5413211584091187, 0.5119402408599854, -0.2568359375, -0.237548828125, -0.77880859375, 
215, 608777103, 0.7065090537071228, -1.1104791164398193, 70.752197265625, 0.18602721393108368, 0.11768433451652527, 9.445596694946289, 1.2889527082443237, -1.4324798583984375, 0.4811793565750122, -0.25439453125, -0.242431640625, -0.77978515625, 
216, 608793770, 0.7062088847160339, -1.1102803945541382, 70.74946594238281, 0.18059124052524567, 0.11334769427776337, 9.43686580657959, 1.3105697631835938, -1.453687071800232, 0.4942162334918976, -0.25390625, -0.239013671875, -0.777099609375, 
217, 608810437, 0.7056106925010681, -1.110493540763855, 70.75043487548828, 0.18087707459926605, 0.11692475527524948, 9.436173439025879, 1.2934221029281616, -1.4776991605758667, 0.5223389863967896, -0.25439453125, -0.240966796875, -0.776123046875, 
218, 608827104, 0.7057570219039917, -1.1112395524978638, 70.75112915039062, 0.18088339269161224, 0.11131082475185394, 9.446418762207031, 1.338942289352417, -1.509016990661621, 0.5576908588409424, -0.251953125, -0.238525390625, -0.778564453125, 
219, 608843771, 0.7056686878204346, -1.1106237173080444, 70.75423431396484, 0.1782827228307724, 0.1168646439909935, 9.411717414855957, 1.3237154483795166, -1.4283241033554077, 0.5188364386558533, -0.258056640625, -0.243408203125, -0.77978515625, 
220, 608860438, 0.7060458660125732, -1.1101560592651367, 70.75517272949219, 0.17400461435317993, 0.1170329749584198, 9.454207420349121, 1.3531445264816284, -1.4365200996398926, 0.5884516835212708, -0.25244140625, -0.240966796875, -0.77880859375, 
221, 608877105, 0.7051721811294556, -1.109149694442749, 70.75277709960938, 0.17039525508880615, 0.1127375140786171, 9.443509101867676, 1.2762359380722046, -1.4055352210998535, 0.4962780177593231, -0.25390625, -0.239013671875, -0.77880859375, 
222, 608893772, 0.704880952835083, -1.108786940574646, 70.75357055664062, 0.18823544681072235, 0.12578316032886505, 9.431991577148438, 1.3116068840026855, -1.4433523416519165, 0.5102241039276123, -0.25439453125, -0.239990234375, -0.77978515625, 
223, 608910439, 0.7049041986465454, -1.108594536781311, 70.75553894042969, 0.18784688413143158, 0.11117174476385117, 9.422760963439941, 1.3319436311721802, -1.4530339241027832, 0.5606171488761902, -0.25146484375, -0.239501953125, -0.7802734375, 
224, 608927106, 0.7044470906257629, -1.108696699142456, 70.75806427001953, 0.17639052867889404, 0.11972241848707199, 9.432035446166992, 1.3027064800262451, -1.4709628820419312, 0.5907377004623413, -0.25537109375, -0.240966796875, -0.78125, 
225, 608943773, 0.7042616009712219, -1.108543872833252, 70.7603759765625, 0.19027842581272125, 0.11034458875656128, 9.43391227722168, 1.3184199333190918, -1.4562866687774658, 0.5014517307281494, -0.25439453125, -0.239990234375, -0.78271484375, 
226, 608960440, 0.7046235203742981, -1.1088476181030273, 70.76077270507812, 0.1923648715019226, 0.11480147391557693, 9.432977676391602, 1.3502565622329712, -1.4837309122085571, 0.5068688988685608, -0.25537109375, -0.239501953125, -0.77880859375, 
227, 608977107, 0.7047001719474792, -1.108891248703003, 70.76353454589844, 0.16629770398139954, 0.12045250087976456, 9.433822631835938, 1.3329297304153442, -1.4687731266021729, 0.4487280547618866, -0.25390625, -0.241943359375, -0.78125, 
228, 608993774, 0.7038178443908691, -1.1089656352996826, 70.763671875, 0.16020599007606506, 0.11900590360164642, 9.42591381072998, 1.2772347927093506, -1.468324899673462, 0.5861658453941345, -0.2548828125, -0.238037109375, -0.779296875, 
229, 609010441, 0.7036685347557068, -1.1097594499588013, 70.76888275146484, 0.16900832951068878, 0.10220552235841751, 9.416946411132812, 1.3208853006362915, -1.513146996498108, 0.5195024013519287, -0.25341796875, -0.241943359375, -0.78369140625, 
230, 609027108, 0.7024475932121277, -1.1094014644622803, 70.77127075195312, 0.18665476143360138, 0.1226758062839508, 9.434317588806152, 1.25619375705719, -1.4441717863082886, 0.5491809844970703, -0.255859375, -0.241943359375, -0.77978515625, 
231, 609043775, 0.7029540538787842, -1.1110581159591675, 70.77179718017578, 0.1808905154466629, 0.10904949903488159, 9.436670303344727, 1.3595157861709595, -1.5646287202835083, 0.4878899157047272, -0.25439453125, -0.240478515625, -0.779296875, 
232, 609060442, 0.7041952610015869, -1.111545443534851, 70.77220916748047, 0.18360859155654907, 0.12202902138233185, 9.435882568359375, 1.4033006429672241, -1.495064616203308, 0.499838262796402, -0.255859375, -0.239013671875, -0.77880859375, 
233, 609077109, 0.7043367624282837, -1.1124285459518433, 70.77848815917969, 0.1974928379058838, 0.1110323965549469, 9.418530464172363, 1.3374950885772705, -1.5190891027450562, 0.506670355796814, -0.2509765625, -0.239990234375, -0.778076171875, 
234, 609093776, 0.7042688727378845, -1.1127842664718628, 70.77864837646484, 0.18203210830688477, 0.12815119326114655, 9.437681198120117, 1.3249129056930542, -1.486881136894226, 0.5058444142341614, -0.25048828125, -0.243408203125, -0.78173828125, 
235, 609110443, 0.7041778564453125, -1.113764762878418, 70.77568817138672, 0.18022343516349792, 0.1262258142232895, 9.435884475708008, 1.3239011764526367, -1.5241990089416504, 0.49857035279273987, -0.25146484375, -0.239501953125, -0.78076171875, 
236, 609127110, 0.7041297554969788, -1.1138538122177124, 70.77510833740234, 0.1843005120754242, 0.11816813796758652, 9.458078384399414, 1.3276790380477905, -1.4700793027877808, 0.5698761343955994, -0.25341796875, -0.238037109375, -0.78076171875, 
237, 609143777, 0.7036219239234924, -1.113674283027649, 70.77472686767578, 0.18626098334789276, 0.11643128842115402, 9.429093360900879, 1.29789137840271, -1.4548779726028442, 0.47866931557655334, -0.255859375, -0.236572265625, -0.7822265625, 
238, 609160444, 0.7037398219108582, -1.1145517826080322, 70.77613830566406, 0.18801431357860565, 0.11166451871395111, 9.429021835327148, 1.3365154266357422, -1.518000602722168, 0.5330578684806824, -0.25244140625, -0.242431640625, -0.78125, 
239, 609177111, 0.7012522220611572, -1.118666410446167, 70.76531982421875, 0.1708623170852661, 0.12355484068393707, 9.459961891174316, 1.2896825075149536, -1.486586570739746, 0.5372711420059204, -0.25439453125, -0.240966796875, -0.78076171875, 
240, 609193778, 0.7014642357826233, -1.1174726486206055, 70.76536560058594, 0.1850542277097702, 0.12352609634399414, 9.434152603149414, 1.3425471782684326, -1.3920501470565796, 0.5244008302688599, -0.2529296875, -0.238525390625, -0.78173828125, 
241, 609210445, 0.7017905712127686, -1.1178003549575806, 70.76663970947266, 0.17583774030208588, 0.11493100225925446, 9.437458038330078, 1.3493858575820923, -1.4847038984298706, 0.5144246220588684, -0.255859375, -0.239990234375, -0.77978515625, 
242, 609227112, 0.7011522650718689, -1.1178772449493408, 70.76966094970703, 0.17672227323055267, 0.11652121692895889, 9.424003601074219, 1.290771245956421, -1.4686063528060913, 0.5027580857276917, -0.25341796875, -0.240966796875, -0.7802734375, 
243, 609243779, 0.7014580368995667, -1.1176328659057617, 70.76773834228516, 0.1847318857908249, 0.11480898410081863, 9.456306457519531, 1.3473175764083862, -1.450255036354065, 0.46116942167282104, -0.25341796875, -0.240966796875, -0.78369140625, 
244, 609260446, 0.7005084156990051, -1.1178369522094727, 70.76972961425781, 0.18632644414901733, 0.11722231656312943, 9.414945602416992, 1.273943543434143, -1.4763797521591187, 0.5755236744880676, -0.2529296875, -0.239990234375, -0.77978515625, 
245, 609277113, 0.70041424036026, -1.1174768209457397, 70.77053833007812, 0.17645424604415894, 0.11045078188180923, 9.427449226379395, 1.3248487710952759, -1.441918134689331, 0.5778032541275024, -0.25341796875, -0.241943359375, -0.7822265625, 
246, 609293780, 0.7001623511314392, -1.117929220199585, 70.77125549316406, 0.175745889544487, 0.11307995021343231, 9.444575309753418, 1.3155320882797241, -1.4903963804244995, 0.5576267838478088, -0.255859375, -0.239990234375, -0.78173828125, 
247, 609310447, 0.6982904076576233, -1.1175835132598877, 70.77530670166016, 0.1785062551498413, 0.11003907024860382, 9.441539764404297, 1.2179605960845947, -1.44385826587677, 0.5137138962745667, -0.25439453125, -0.243408203125, -0.7802734375, 
248, 609327114, 0.6987346410751343, -1.1179778575897217, 70.77593231201172, 0.18480752408504486, 0.11484820395708084, 9.429903030395508, 1.3576780557632446, -1.4872207641601562, 0.5906032919883728, -0.25341796875, -0.240966796875, -0.78125, 
249, 609343781, 0.6989324688911438, -1.1178388595581055, 70.77642822265625, 0.1891472488641739, 0.11773102730512619, 9.458515167236328, 1.3432706594467163, -1.455153465270996, 0.5856983661651611, -0.25439453125, -0.239013671875, -0.77978515625, 
250, 609360448, 0.6990421414375305, -1.1177960634231567, 70.77812194824219, 0.18005774915218353, 0.1049511581659317, 9.43642520904541, 1.3363233804702759, -1.4622929096221924, 0.504230797290802, -0.25439453125, -0.240966796875, -0.78271484375, 
251, 609377115, 0.6989704966545105, -1.1167219877243042, 70.77835845947266, 0.18324014544487, 0.11051619052886963, 9.436225891113281, 1.325713038444519, -1.3993240594863892, 0.5280569195747375, -0.255859375, -0.237548828125, -0.78173828125, 
252, 609393782, 0.6993707418441772, -1.116811752319336, 70.7803955078125, 0.1791781783103943, 0.1172233298420906, 9.456093788146973, 1.3545787334442139, -1.4700024127960205, 0.5398516654968262, -0.25390625, -0.238037109375, -0.78173828125, 
253, 609410449, 0.6983602643013, -1.114714503288269, 70.7817611694336, 0.18716703355312347, 0.11325941234827042, 9.434099197387695, 1.2683087587356567, -1.3390957117080688, 0.4780673682689667, -0.2529296875, -0.237548828125, -0.78125, 
254, 609427116, 0.6993075013160706, -1.1142170429229736, 70.78031921386719, 0.17712152004241943, 0.12168488651514053, 9.434086799621582, 1.386024832725525, -1.4353611469268799, 0.4394562840461731, -0.25244140625, -0.239501953125, -0.776123046875, 
255, 609443783, 0.6990622878074646, -1.1142691373825073, 70.77855682373047, 0.1667511761188507, 0.1200852170586586, 9.42220687866211, 1.3142963647842407, -1.4675307273864746, 0.4761976897716522, -0.2548828125, -0.239990234375, -0.77880859375, 
256, 609460450, 0.6987289786338806, -1.1132529973983765, 70.77945709228516, 0.18653681874275208, 0.1135270819067955, 9.436116218566895, 1.3110500574111938, -1.4027754068374634, 0.6038705706596375, -0.25439453125, -0.240478515625, -0.7802734375, 
257, 609477117, 0.6983811855316162, -1.11471426486969, 70.78044891357422, 0.19215884804725647, 0.1176123321056366, 9.443142890930176, 1.3100833892822266, -1.5518608093261719, 0.5489122271537781, -0.25390625, -0.240478515625, -0.7822265625, 
258, 609493784, 0.6976726055145264, -1.1146876811981201, 70.78185272216797, 0.18099135160446167, 0.10875248163938522, 9.441376686096191, 1.2875887155532837, -1.4622737169265747, 0.5407353043556213, -0.25634765625, -0.241455078125, -0.77880859375, 
259, 609510451, 0.697455883026123, -1.115029215812683, 70.78396606445312, 0.17516036331653595, 0.1103391945362091, 9.419416427612305, 1.317216157913208, -1.4852290153503418, 0.5049095153808594, -0.25146484375, -0.239990234375, -0.783203125, 
260, 609527118, 0.6970893144607544, -1.1147853136062622, 70.78617858886719, 0.18826371431350708, 0.12318885326385498, 9.413647651672363, 1.3079956769943237, -1.4491665363311768, 0.5323920249938965, -0.2509765625, -0.240966796875, -0.7802734375, 
261, 609543785, 0.6974754333496094, -1.114320158958435, 70.78521728515625, 0.18239888548851013, 0.12285128235816956, 9.443726539611816, 1.3545531034469604, -1.4353803396224976, 0.5800892114639282, -0.25341796875, -0.239013671875, -0.779296875, 
262, 609560452, 0.6977719664573669, -1.114471197128296, 70.78575897216797, 0.172660231590271, 0.10409659892320633, 9.453913688659668, 1.348367691040039, -1.4727622270584106, 0.5708301663398743, -0.2548828125, -0.240478515625, -0.7783203125, 
263, 609577119, 0.6975573301315308, -1.115060806274414, 70.78421783447266, 0.17862685024738312, 0.11656004935503006, 9.441580772399902, 1.3165438175201416, -1.500538945198059, 0.48197972774505615, -0.25390625, -0.239013671875, -0.779296875, 
264, 609593786, 0.6972058415412903, -1.115995168685913, 70.78477478027344, 0.17419467866420746, 0.1158432886004448, 9.424358367919922, 1.3093916177749634, -1.520574688911438, 0.5220572352409363, -0.2529296875, -0.237060546875, -0.78173828125, 
265, 609610453, 0.6968583464622498, -1.1156206130981445, 70.78038024902344, 0.1835227906703949, 0.12422630190849304, 9.426867485046387, 1.3085463047027588, -1.4415979385375977, 0.5073683261871338, -0.24951171875, -0.239501953125, -0.778564453125, 
266, 609627120, 0.6963832378387451, -1.115609884262085, 70.7850112915039, 0.18513324856758118, 0.10863208025693893, 9.463237762451172, 1.3027257919311523, -1.463688850402832, 0.571329653263092, -0.2548828125, -0.241943359375, -0.77880859375, 
267, 609643787, 0.6973747611045837, -1.1155579090118408, 70.78397369384766, 0.17544041574001312, 0.1237228512763977, 9.41072940826416, 1.3902636766433716, -1.4609098434448242, 0.5333139896392822, -0.2529296875, -0.240478515625, -0.78173828125, 
268, 609660454, 0.6967998743057251, -1.1154751777648926, 70.78353881835938, 0.1895987093448639, 0.1102752611041069, 9.416747093200684, 1.295996069908142, -1.4588607549667358, 0.5517807602882385, -0.2548828125, -0.239013671875, -0.776611328125, 
269, 609677121, 0.6980094909667969, -1.1154563426971436, 70.78392028808594, 0.18103526532649994, 0.11901651322841644, 9.4268217086792, 1.4038385152816772, -1.462689995765686, 0.5688004493713379, -0.2548828125, -0.239013671875, -0.7783203125, 
270, 609693788, 0.6983194351196289, -1.115043044090271, 70.78414154052734, 0.18764159083366394, 0.11283912509679794, 9.428362846374512, 1.3483357429504395, -1.43919038772583, 0.5099424123764038, -0.251953125, -0.239013671875, -0.78076171875, 
271, 609710455, 0.6987779140472412, -1.11470365524292, 70.78217315673828, 0.18398696184158325, 0.12352064251899719, 9.439542770385742, 1.357171893119812, -1.4437109231948853, 0.5220316052436829, -0.2529296875, -0.240478515625, -0.78125, 
272, 609727122, 0.6989738941192627, -1.1142550706863403, 70.78109741210938, 0.1760168820619583, 0.09957130998373032, 9.427034378051758, 1.3420861959457397, -1.4374229907989502, 0.5423296689987183, -0.25390625, -0.240966796875, -0.78173828125, 
273, 609743789, 0.6987226009368896, -1.1136771440505981, 70.78168487548828, 0.1800379753112793, 0.11712280660867691, 9.461616516113281, 1.31649911403656, -1.4291115999221802, 0.5655731558799744, -0.2548828125, -0.241455078125, -0.78173828125, 
274, 609760456, 0.6981440186500549, -1.1135895252227783, 70.78109741210938, 0.18780933320522308, 0.11377604305744171, 9.433026313781738, 1.2949715852737427, -1.4584380388259888, 0.5166144967079163, -0.2548828125, -0.240966796875, -0.77783203125, 
275, 609777123, 0.6981150507926941, -1.1126155853271484, 70.78194427490234, 0.20275390148162842, 0.10906702280044556, 9.419475555419922, 1.3278518915176392, -1.4059514999389648, 0.49709123373031616, -0.25146484375, -0.240478515625, -0.78076171875, 
276, 609793790, 0.6972085237503052, -1.112477421760559, 70.78230285644531, 0.19334666430950165, 0.11689253151416779, 9.445552825927734, 1.2752306461334229, -1.4571192264556885, 0.47333547472953796, -0.2568359375, -0.238037109375, -0.78369140625, 
277, 609810457, 0.6968292593955994, -1.1123073101043701, 70.7874526977539, 0.18725533783435822, 0.11124420911073685, 9.426284790039062, 1.3067278861999512, -1.4537383317947388, 0.503385603427887, -0.2529296875, -0.241455078125, -0.78271484375, 
278, 609827124, 0.694943368434906, -1.111711859703064, 70.78507232666016, 0.17808806896209717, 0.11669071763753891, 9.422022819519043, 1.2163982391357422, -1.429066777229309, 0.4687764346599579, -0.254638671875, -0.243896484375, -0.7783203125, 
279, 609843791, 0.6939918398857117, -1.1120412349700928, 70.78385925292969, 0.18097510933876038, 0.11367829144001007, 9.440309524536133, 1.273476243019104, -1.4828088283538818, 0.5620578527450562, -0.25341796875, -0.240966796875, -0.77978515625, 
280, 609860458, 0.6942641139030457, -1.1118159294128418, 70.78357696533203, 0.17953164875507355, 0.1219351515173912, 9.431074142456055, 1.347042202949524, -1.4508569240570068, 0.5287805795669556, -0.25244140625, -0.239501953125, -0.77880859375, 
281, 609877125, 0.6940882802009583, -1.111751914024353, 70.78443908691406, 0.17838488519191742, 0.11821229755878448, 9.42959213256836, 1.321250319480896, -1.4591681957244873, 0.6081158518791199, -0.25341796875, -0.240966796875, -0.7822265625, 
282, 609893792, 0.6931959390640259, -1.1120166778564453, 70.7833480834961, 0.17770187556743622, 0.12083188444375992, 9.444086074829102, 1.277119517326355, -1.4795430898666382, 0.5650225281715393, -0.25244140625, -0.242431640625, -0.77783203125, 
283, 609910459, 0.6941782236099243, -1.1112743616104126, 70.78181457519531, 0.18012042343616486, 0.11780557036399841, 9.433733940124512, 1.3893159627914429, -1.419430136680603, 0.5211991667747498, -0.25341796875, -0.238037109375, -0.77978515625, 
284, 609927126, 0.694300651550293, -1.110591173171997, 70.78341674804688, 0.18593163788318634, 0.10824821889400482, 9.44688892364502, 1.3373478651046753, -1.4226957559585571, 0.5467734336853027, -0.2529296875, -0.239990234375, -0.77978515625, 
285, 609943793, 0.6944760084152222, -1.1098426580429077, 70.78335571289062, 0.18514205515384674, 0.12254272401332855, 9.441555976867676, 1.3416892290115356, -1.4186745882034302, 0.5619233846664429, -0.25, -0.238037109375, -0.78125, 
286, 609960460, 0.694139301776886, -1.1097943782806396, 70.77897644042969, 0.1890687793493271, 0.12267762422561646, 9.426973342895508, 1.3092378377914429, -1.4615116119384766, 0.489797979593277, -0.25537109375, -0.241943359375, -0.7802734375, 
287, 609977127, 0.6943996548652649, -1.1095497608184814, 70.77743530273438, 0.1906292885541916, 0.11431342363357544, 9.44238567352295, 1.3452109098434448, -1.4495635032653809, 0.4680016338825226, -0.25634765625, -0.240478515625, -0.7802734375, 
288, 609993794, 0.6946166753768921, -1.1097910404205322, 70.77764129638672, 0.17035293579101562, 0.11855591833591461, 9.439691543579102, 1.3410168886184692, -1.479312539100647, 0.4502200484275818, -0.25146484375, -0.238525390625, -0.78125, 
289, 610010461, 0.6940727829933167, -1.1103476285934448, 70.77639770507812, 0.18017061054706573, 0.11260813474655151, 9.41482925415039, 1.298295021057129, -1.4967228174209595, 0.5632616281509399, -0.251953125, -0.240478515625, -0.779296875, 
290, 610027128, 0.6943180561065674, -1.109533667564392, 70.77579498291016, 0.17854639887809753, 0.12507767975330353, 9.417243003845215, 1.3453900814056396, -1.415293574333191, 0.5236836075782776, -0.2548828125, -0.239501953125, -0.779296875, 
291, 610043795, 0.6955884099006653, -1.1090233325958252, 70.77819061279297, 0.17935654520988464, 0.10658658295869827, 9.432038307189941, 1.405579924583435, -1.4334274530410767, 0.5185226202011108, -0.2548828125, -0.239990234375, -0.77880859375, 
292, 610060462, 0.6968850493431091, -1.1086431741714478, 70.78071594238281, 0.18560990691184998, 0.12041346728801727, 9.431437492370605, 1.4079043865203857, -1.4409511089324951, 0.5179911851882935, -0.25439453125, -0.239013671875, -0.779296875, 
293, 610077129, 0.6976223587989807, -1.1093002557754517, 70.78313446044922, 0.187228724360466, 0.11579928547143936, 9.438121795654297, 1.3757990598678589, -1.5026395320892334, 0.578654944896698, -0.2548828125, -0.238037109375, -0.77880859375, 
294, 610093796, 0.6982102394104004, -1.1091831922531128, 70.78475952148438, 0.17842835187911987, 0.12096298485994339, 9.429303169250488, 1.3641387224197388, -1.4577082395553589, 0.4682193398475647, -0.25341796875, -0.241943359375, -0.78076171875, 
295, 610110463, 0.6984464526176453, -1.1091892719268799, 70.78508758544922, 0.173879012465477, 0.11154267191886902, 9.43270206451416, 1.344525694847107, -1.4639769792556763, 0.5241254568099976, -0.251953125, -0.239501953125, -0.7802734375, 
296, 610127130, 0.6990044116973877, -1.1091347932815552, 70.78409576416016, 0.17997106909751892, 0.10661030560731888, 9.430503845214844, 1.3621857166290283, -1.4613901376724243, 0.47679319977760315, -0.25537109375, -0.240966796875, -0.78125, 
297, 610143797, 0.6989380121231079, -1.1086153984069824, 70.78573608398438, 0.17961296439170837, 0.11766574531793594, 9.436627388000488, 1.3275319337844849, -1.4323900938034058, 0.5810113549232483, -0.2548828125, -0.239990234375, -0.77978515625, 
298, 610160464, 0.6985083818435669, -1.1094319820404053, 70.78482055664062, 0.18394145369529724, 0.11709320545196533, 9.440646171569824, 1.3036543130874634, -1.5133776664733887, 0.4671051800251007, -0.25146484375, -0.240966796875, -0.77978515625, 
299, 610177131, 0.6986579895019531, -1.109113335609436, 70.7850570678711, 0.17136366665363312, 0.11517241597175598, 9.434988021850586, 1.3386541604995728, -1.444799542427063, 0.5003889203071594, -0.2587890625, -0.239990234375, -0.77880859375, 
300, 610193798, 0.6986637115478516, -1.1088558435440063, 70.78962707519531, 0.1844182163476944, 0.10431113094091415, 9.432541847229004, 1.3308614492416382, -1.4479049444198608, 0.5718675255775452, -0.2529296875, -0.241943359375, -0.78125, 
301, 610210465, 0.6987598538398743, -1.1070497035980225, 70.78713989257812, 0.18579073250293732, 0.12757471203804016, 9.432390213012695, 1.3352283239364624, -1.3564677238464355, 0.49135398864746094, -0.255859375, -0.239990234375, -0.7783203125, 
302, 610227132, 0.7003823518753052, -1.108049750328064, 70.78781127929688, 0.1915057897567749, 0.1206212267279625, 9.438759803771973, 1.4282026290893555, -1.5230271816253662, 0.5371239185333252, -0.255859375, -0.238037109375, -0.779296875, 
303, 610243799, 0.7002624869346619, -1.1076818704605103, 70.78926086425781, 0.18742327392101288, 0.1134871244430542, 9.428019523620605, 1.3228447437286377, -1.4418091773986816, 0.5202323198318481, -0.25341796875, -0.238037109375, -0.7802734375, 
304, 610260466, 0.7009291648864746, -1.1062194108963013, 70.79069519042969, 0.1811634600162506, 0.11395920813083649, 9.443583488464355, 1.369434118270874, -1.3770602941513062, 0.47882941365242004, -0.25537109375, -0.241455078125, -0.78076171875, 
305, 610277133, 0.7019920945167542, -1.1061804294586182, 70.79094696044922, 0.20095489919185638, 0.10941949486732483, 9.442264556884766, 1.3935227394104004, -1.4613901376724243, 0.5242663025856018, -0.2529296875, -0.241455078125, -0.783203125, 
306, 610293800, 0.7015555500984192, -1.1053919792175293, 70.78876495361328, 0.18960373103618622, 0.1263069063425064, 9.438045501708984, 1.3036094903945923, -1.4174387454986572, 0.4674573540687561, -0.25390625, -0.239990234375, -0.7802734375, 
307, 610310467, 0.7015599012374878, -1.1055731773376465, 70.78870391845703, 0.18617093563079834, 0.12834542989730835, 9.446514129638672, 1.3294334411621094, -1.4742926359176636, 0.5045509338378906, -0.255859375, -0.239501953125, -0.78173828125, 
308, 610327134, 0.7005537152290344, -1.1053805351257324, 70.7916030883789, 0.1752050817012787, 0.12005788087844849, 9.434943199157715, 1.2707867622375488, -1.4518749713897705, 0.5679999589920044, -0.2548828125, -0.240966796875, -0.78173828125, 
309, 610343801, 0.7002267837524414, -1.1056522130966187, 70.79145812988281, 0.19169981777668, 0.11030816286802292, 9.451432228088379, 1.3104352951049805, -1.479792833328247, 0.5168770551681519, -0.25341796875, -0.238037109375, -0.78173828125, 
310, 610360468, 0.700330376625061, -1.1057376861572266, 70.79231262207031, 0.19120906293392181, 0.10290400683879852, 9.428107261657715, 1.3362846374511719, -1.4695923328399658, 0.5054857730865479, -0.255859375, -0.242431640625, -0.78076171875, 
311, 610377135, 0.699459433555603, -1.106216549873352, 70.79328918457031, 0.19035014510154724, 0.09926170855760574, 9.442550659179688, 1.2770555019378662, -1.4916322231292725, 0.513246476650238, -0.251953125, -0.242431640625, -0.78076171875, 
312, 610393802, 0.6985884308815002, -1.1067209243774414, 70.79393005371094, 0.18989214301109314, 0.12483470141887665, 9.4404296875, 1.278175950050354, -1.4946095943450928, 0.5059660077095032, -0.25439453125, -0.239013671875, -0.7802734375, 
313, 610410469, 0.6989957094192505, -1.106374740600586, 70.79315185546875, 0.1820840835571289, 0.11065123230218887, 9.4421968460083, 1.3538168668746948, -1.4425455331802368, 0.48539263010025024, -0.25341796875, -0.239501953125, -0.7822265625, 
314, 610427136, 0.6985637545585632, -1.106443166732788, 70.79235076904297, 0.19236242771148682, 0.12077894061803818, 9.45159912109375, 1.3039616346359253, -1.4685297012329102, 0.499402791261673, -0.25537109375, -0.240966796875, -0.78173828125, 
315, 610443803, 0.6984639763832092, -1.1055246591567993, 70.79315185546875, 0.18853430449962616, 0.11824718117713928, 9.436551094055176, 1.3233120441436768, -1.4082756042480469, 0.4837277829647064, -0.2529296875, -0.241455078125, -0.779296875, 
316, 610460470, 0.6991045475006104, -1.1058417558670044, 70.79264068603516, 0.1824650764465332, 0.12323251366615295, 9.44507122039795, 1.36844801902771, -1.4829176664352417, 0.5198609828948975, -0.25244140625, -0.241455078125, -0.78076171875, 
317, 610477137, 0.7001402974128723, -1.1061877012252808, 70.79094696044922, 0.1778596043586731, 0.1296168565750122, 9.441176414489746, 1.392287254333496, -1.484332799911499, 0.5068176984786987, -0.25341796875, -0.239990234375, -0.777587890625, 
318, 610493804, 0.700179398059845, -1.1062101125717163, 70.79141235351562, 0.188953697681427, 0.11002780497074127, 9.433606147766113, 1.3318730592727661, -1.4648863077163696, 0.5187979936599731, -0.25439453125, -0.237548828125, -0.779296875, 
319, 610510471, 0.7001331448554993, -1.106000542640686, 70.7926254272461, 0.18184615671634674, 0.13327935338020325, 9.431731224060059, 1.3281337022781372, -1.4501590728759766, 0.5428483486175537, -0.25244140625, -0.241943359375, -0.78076171875, 
320, 610527138, 0.6997115015983582, -1.1060422658920288, 70.79014587402344, 0.18401186168193817, 0.11237282305955887, 9.448826789855957, 1.3043137788772583, -1.4663844108581543, 0.524919331073761, -0.2548828125, -0.240966796875, -0.78173828125, 
321, 610543805, 0.7002158761024475, -1.1062825918197632, 70.79141235351562, 0.1738618016242981, 0.11719360947608948, 9.43284797668457, 1.3622819185256958, -1.476738691329956, 0.5932349562644958, -0.25244140625, -0.240478515625, -0.78076171875, 
322, 610560472, 0.700021505355835, -1.1066116094589233, 70.7916030883789, 0.18491487205028534, 0.11928226053714752, 9.436601638793945, 1.3180869817733765, -1.4825012683868408, 0.5505257248878479, -0.251953125, -0.241455078125, -0.78271484375, 
323, 610577139, 0.6999620795249939, -1.1061159372329712, 70.79058837890625, 0.178396075963974, 0.11501386761665344, 9.450148582458496, 1.3262383937835693, -1.4341638088226318, 0.4720292091369629, -0.25390625, -0.241943359375, -0.78125, 
324, 610593806, 0.6998284459114075, -1.1065915822982788, 70.78846740722656, 0.18034586310386658, 0.11239518225193024, 9.444565773010254, 1.3199056386947632, -1.4930922985076904, 0.43665167689323425, -0.25439453125, -0.239013671875, -0.77880859375, 
325, 610610473, 0.6993492841720581, -1.1083437204360962, 70.79067993164062, 0.18108411133289337, 0.11185978353023529, 9.462196350097656, 1.300459384918213, -1.569066047668457, 0.4914308786392212, -0.2548828125, -0.237548828125, -0.77978515625, 
326, 610627140, 0.6996423006057739, -1.108896017074585, 70.79304504394531, 0.18420138955116272, 0.11632561683654785, 9.439766883850098, 1.3477530479431152, -1.4962619543075562, 0.5288125872612, -0.25439453125, -0.238037109375, -0.78173828125, 
327, 610643807, 0.6993810534477234, -1.1085119247436523, 70.79780578613281, 0.1769203394651413, 0.11928766220808029, 9.444184303283691, 1.3147894144058228, -1.440861463546753, 0.520193874835968, -0.25341796875, -0.240478515625, -0.78125, 
328, 610660474, 0.6987635493278503, -1.107488989830017, 70.7994384765625, 0.19096681475639343, 0.1241784617304802, 9.435918807983398, 1.2938958406448364, -1.4016677141189575, 0.5718739032745361, -0.255859375, -0.239990234375, -0.77783203125, 
329, 610677141, 0.6987204551696777, -1.1077203750610352, 70.80074310302734, 0.19726502895355225, 0.11682174354791641, 9.424676895141602, 1.327512502670288, -1.477148175239563, 0.5257710218429565, -0.25048828125, -0.241943359375, -0.78076171875, 
330, 610693808, 0.6983574628829956, -1.1084223985671997, 70.80023956298828, 0.1914549618959427, 0.11480259150266647, 9.449067115783691, 1.3079636096954346, -1.5054055452346802, 0.5149816870689392, -0.25390625, -0.240478515625, -0.7783203125, 
331, 610710475, 0.6983156800270081, -1.1084157228469849, 70.80065155029297, 0.17613032460212708, 0.12275411188602448, 9.433527946472168, 1.326917052268982, -1.463183045387268, 0.48788344860076904, -0.2509765625, -0.241943359375, -0.7822265625, 
332, 610727142, 0.6994761228561401, -1.1083264350891113, 70.79474639892578, 0.1791936606168747, 0.1115996316075325, 9.440072059631348, 1.3988566398620605, -1.458988904953003, 0.4668618440628052, -0.2548828125, -0.240966796875, -0.783203125, 
333, 610743809, 0.6997271776199341, -1.1088035106658936, 70.79508972167969, 0.17112870514392853, 0.11661631613969803, 9.438772201538086, 1.3450891971588135, -1.4913570880889893, 0.5321038365364075, -0.2548828125, -0.241943359375, -0.78173828125, 
334, 610760476, 0.6994228363037109, -1.1093826293945312, 70.79415893554688, 0.17716658115386963, 0.1150093525648117, 9.434386253356934, 1.3117607831954956, -1.4987398386001587, 0.4946132302284241, -0.2548828125, -0.238525390625, -0.7783203125, 
335, 610777143, 0.700463593006134, -1.1106297969818115, 70.79413604736328, 0.18652872741222382, 0.12244158238172531, 9.444175720214844, 1.3912371397018433, -1.538887858390808, 0.47920718789100647, -0.251953125, -0.241943359375, -0.78125, 
336, 610793810, 0.7010974287986755, -1.1105798482894897, 70.79149627685547, 0.17188937962055206, 0.12060737609863281, 9.443848609924316, 1.3683583736419678, -1.4597700834274292, 0.5218203067779541, -0.25390625, -0.240966796875, -0.78076171875, 
337, 610810477, 0.7004432678222656, -1.1091935634613037, 70.7907485961914, 0.17121575772762299, 0.11477047950029373, 9.459683418273926, 1.2904446125030518, -1.3803259134292603, 0.4975266754627228, -0.25390625, -0.239990234375, -0.78271484375, 
338, 610827144, 0.7006628513336182, -1.108971118927002, 70.79143524169922, 0.1757364124059677, 0.11553984880447388, 9.440195083618164, 1.3437639474868774, -1.4504855871200562, 0.5419711470603943, -0.2529296875, -0.238037109375, -0.779296875, 
339, 610843811, 0.7009044885635376, -1.107535481452942, 70.79256439208984, 0.18563397228717804, 0.10885303467512131, 9.453605651855469, 1.3447370529174805, -1.3766952753067017, 0.5625893473625183, -0.2568359375, -0.240478515625, -0.7802734375, 
340, 610860478, 0.7016757726669312, -1.1082769632339478, 70.79183959960938, 0.1856919527053833, 0.1308850347995758, 9.438591003417969, 1.3747423887252808, -1.5089592933654785, 0.4439513087272644, -0.25341796875, -0.239501953125, -0.779296875, 
341, 610877145, 0.7016233205795288, -1.1078592538833618, 70.79330444335938, 0.18554390966892242, 0.11496827006340027, 9.462207794189453, 1.3283578157424927, -1.4374487400054932, 0.572770357131958, -0.25390625, -0.238525390625, -0.78271484375, 
342, 610893812, 0.7025673389434814, -1.1078883409500122, 70.79440307617188, 0.17323021590709686, 0.10322611033916473, 9.43947696685791, 1.3863706588745117, -1.4649182558059692, 0.5299972295761108, -0.25537109375, -0.239501953125, -0.7822265625, 
343, 610910479, 0.7022362351417542, -1.107499599456787, 70.79588317871094, 0.1667766571044922, 0.1192009449005127, 9.450573921203613, 1.3098334074020386, -1.4403364658355713, 0.5109093189239502, -0.25244140625, -0.239013671875, -0.77978515625, 
344, 610927146, 0.702844500541687, -1.1063182353973389, 70.7976303100586, 0.18315479159355164, 0.11938624829053879, 9.429399490356445, 1.3676540851593018, -1.3915315866470337, 0.5619170069694519, -0.25537109375, -0.240478515625, -0.77880859375, 
345, 610943813, 0.702049970626831, -1.1054788827896118, 70.79769134521484, 0.17781253159046173, 0.10418513417243958, 9.443463325500488, 1.2820308208465576, -1.413763403892517, 0.49227607250213623, -0.2529296875, -0.239013671875, -0.78125, 
346, 610960480, 0.7022972702980042, -1.1060457229614258, 70.79602813720703, 0.1827401965856552, 0.12167273461818695, 9.438520431518555, 1.3441224098205566, -1.4977794885635376, 0.4810129404067993, -0.25341796875, -0.240966796875, -0.78125, 
347, 610977147, 0.702846884727478, -1.1047112941741943, 70.79642486572266, 0.18258969485759735, 0.11727394163608551, 9.444791793823242, 1.3631013631820679, -1.3831881284713745, 0.5509867668151855, -0.2548828125, -0.237548828125, -0.778076171875, 
348, 610993814, 0.7029038071632385, -1.1050186157226562, 70.79946899414062, 0.1914043128490448, 0.10706207156181335, 9.440139770507812, 1.3342294692993164, -1.4812272787094116, 0.5408249497413635, -0.255859375, -0.240966796875, -0.77978515625, 
349, 611010481, 0.702244222164154, -1.10504150390625, 70.80113983154297, 0.1923792064189911, 0.11142657697200775, 9.424514770507812, 1.2913153171539307, -1.4637209177017212, 0.5881827473640442, -0.25341796875, -0.240478515625, -0.77978515625, 
350, 611027148, 0.7018232345581055, -1.1050801277160645, 70.80014038085938, 0.18949447572231293, 0.10868043452501297, 9.436592102050781, 1.3037630319595337, -1.466486930847168, 0.4687892496585846, -0.2529296875, -0.240478515625, -0.78076171875, 
351, 611043815, 0.7012049555778503, -1.1058194637298584, 70.80025482177734, 0.1846138834953308, 0.10412998497486115, 9.442658424377441, 1.29440176486969, -1.5074291229248047, 0.5777968764305115, -0.25341796875, -0.240966796875, -0.78173828125, 
352, 611060482, 0.7012922167778015, -1.1071515083312988, 70.80072021484375, 0.1696063131093979, 0.11834254115819931, 9.433801651000977, 1.3352348804473877, -1.5431523323059082, 0.5301893353462219, -0.2529296875, -0.237060546875, -0.7802734375, 
353, 611077149, 0.7012107372283936, -1.1079074144363403, 70.80085754394531, 0.18869827687740326, 0.12056447565555573, 9.427826881408691, 1.324976921081543, -1.5092923641204834, 0.4800395667552948, -0.25439453125, -0.239013671875, -0.7783203125, 
354, 611093816, 0.7012056112289429, -1.1087391376495361, 70.80157470703125, 0.1749323159456253, 0.12976768612861633, 9.44190502166748, 1.3283321857452393, -1.5139538049697876, 0.4380987882614136, -0.25732421875, -0.240966796875, -0.78125, 
355, 611110483, 0.7002856731414795, -1.1083793640136719, 70.80426788330078, 0.18626892566680908, 0.11635055392980576, 9.441094398498535, 1.2757428884506226, -1.441047191619873, 0.554937481880188, -0.25732421875, -0.238037109375, -0.78076171875, 
356, 611127150, 0.7001309990882874, -1.1082983016967773, 70.8056640625, 0.18094220757484436, 0.10722779482603073, 9.433870315551758, 1.3188490867614746, -1.4596868753433228, 0.43427610397338867, -0.2529296875, -0.239013671875, -0.77978515625, 
357, 611143817, 0.6991657614707947, -1.1075745820999146, 70.80661010742188, 0.18032926321029663, 0.11967165023088455, 9.436080932617188, 1.2731176614761353, -1.419628620147705, 0.5545149445533752, -0.25341796875, -0.240478515625, -0.77978515625, 
358, 611160484, 0.6984788179397583, -1.1087303161621094, 70.8064956665039, 0.16803036630153656, 0.13197457790374756, 9.435440063476562, 1.2892087697982788, -1.5327918529510498, 0.5463252663612366, -0.2568359375, -0.238037109375, -0.78271484375, 
359, 611177151, 0.6985336542129517, -1.1139092445373535, 70.80757904052734, 0.19023312628269196, 0.12120439112186432, 9.437236785888672, 1.2715232372283936, -1.4679534435272217, 0.4533255398273468, -0.25439453125, -0.239990234375, -0.7783203125, 
360, 611193818, 0.6982253193855286, -1.113829255104065, 70.80867767333984, 0.18333649635314941, 0.12181056290864944, 9.45234203338623, 1.310115098953247, -1.4580988883972168, 0.46864837408065796, -0.25439453125, -0.240966796875, -0.78466796875, 
361, 611210485, 0.6981082558631897, -1.114242434501648, 70.80918884277344, 0.1744724065065384, 0.10613348335027695, 9.430726051330566, 1.3226654529571533, -1.4880914688110352, 0.4813394546508789, -0.25439453125, -0.238525390625, -0.78125, 
362, 611227152, 0.6975057721138, -1.1136367321014404, 70.81047058105469, 0.18689574301242828, 0.12229424715042114, 9.455617904663086, 1.2940751314163208, -1.425180196762085, 0.5681856870651245, -0.25390625, -0.238525390625, -0.78125, 
363, 611243819, 0.69671630859375, -1.113014817237854, 70.80976104736328, 0.1821633130311966, 0.11728405207395554, 9.438430786132812, 1.2820050716400146, -1.4257113933563232, 0.4867052435874939, -0.255859375, -0.242431640625, -0.779296875, 
364, 611260486, 0.6962884068489075, -1.1138064861297607, 70.80867767333984, 0.17060653865337372, 0.12425192445516586, 9.432822227478027, 1.3039617538452148, -1.5102143287658691, 0.5017207264900208, -0.2548828125, -0.241943359375, -0.7802734375, 
365, 611277153, 0.6958479881286621, -1.1134133338928223, 70.81102752685547, 0.1703885942697525, 0.11093220114707947, 9.435770988464355, 1.303346872329712, -1.4388060569763184, 0.520635724067688, -0.25537109375, -0.238525390625, -0.77978515625, 
366, 611293820, 0.6958913803100586, -1.112998366355896, 70.8126220703125, 0.1727081835269928, 0.11056545376777649, 9.414920806884766, 1.333569884300232, -1.4371154308319092, 0.5684545636177063, -0.255615234375, -0.243896484375, -0.779296875, 
367, 611310487, 0.694810688495636, -1.1133729219436646, 70.81149291992188, 0.18020032346248627, 0.12320427596569061, 9.427020072937012, 1.2644540071487427, -1.4852547645568848, 0.5031422972679138, -0.251953125, -0.240478515625, -0.7822265625, 
368, 611327154, 0.6960811018943787, -1.1144154071807861, 70.8092041015625, 0.1710367649793625, 0.11747554689645767, 9.442502975463867, 1.40547776222229, -1.5253005027770996, 0.50645911693573, -0.25439453125, -0.237548828125, -0.77978515625, 
369, 611343821, 0.6957942247390747, -1.1139743328094482, 70.8090591430664, 0.18099980056285858, 0.11864703893661499, 9.438084602355957, 1.313220739364624, -1.4355660676956177, 0.5378218293190002, -0.25146484375, -0.239013671875, -0.778564453125, 
370, 611360488, 0.6956180334091187, -1.1144899129867554, 70.80999755859375, 0.19122759997844696, 0.11472661793231964, 9.439848899841309, 1.3193869590759277, -1.493316411972046, 0.5522353649139404, -0.251953125, -0.242431640625, -0.7841796875, 
371, 611377155, 0.6955283284187317, -1.1131590604782104, 70.8099594116211, 0.18505844473838806, 0.11101535707712173, 9.442476272583008, 1.324829339981079, -1.3822083473205566, 0.5289661884307861, -0.2529296875, -0.238525390625, -0.78173828125, 
372, 611393822, 0.6956198215484619, -1.1121654510498047, 70.80950164794922, 0.17484094202518463, 0.12557993829250336, 9.430935859680176, 1.3354716300964355, -1.402608871459961, 0.5139443874359131, -0.251953125, -0.239501953125, -0.77978515625, 
373, 611410489, 0.695889413356781, -1.1120507717132568, 70.80877685546875, 0.16871273517608643, 0.12019200623035431, 9.442179679870605, 1.3454351425170898, -1.4557554721832275, 0.5021625757217407, -0.2578125, -0.239501953125, -0.77880859375, 
374, 611427156, 0.6951403617858887, -1.1121149063110352, 70.81684875488281, 0.16539502143859863, 0.10848629474639893, 9.454852104187012, 1.2842206954956055, -1.467089056968689, 0.4930572807788849, -0.25390625, -0.239501953125, -0.78271484375, 
375, 611443823, 0.6952773928642273, -1.111190915107727, 70.81736755371094, 0.17378032207489014, 0.1152750551700592, 9.428236961364746, 1.3390319347381592, -1.4069758653640747, 0.5478043556213379, -0.2587890625, -0.239990234375, -0.77880859375, 
376, 611460490, 0.6950941681861877, -1.1120915412902832, 70.82003021240234, 0.17765775322914124, 0.11181438714265823, 9.431002616882324, 1.3181958198547363, -1.5163676738739014, 0.5220252275466919, -0.25537109375, -0.240966796875, -0.78173828125, 
377, 611477157, 0.6948044896125793, -1.1130080223083496, 70.82040405273438, 0.1857503056526184, 0.12496430426836014, 9.427910804748535, 1.3130093812942505, -1.5173922777175903, 0.5291327238082886, -0.25390625, -0.236572265625, -0.78369140625, 
378, 611493824, 0.6937042474746704, -1.1136571168899536, 70.82377624511719, 0.17253762483596802, 0.12775398790836334, 9.423334121704102, 1.2633782625198364, -1.502325415611267, 0.4908224642276764, -0.2509765625, -0.242919921875, -0.77978515625, 
379, 611510491, 0.6939808130264282, -1.112583875656128, 70.8205337524414, 0.18252338469028473, 0.1192195788025856, 9.442712783813477, 1.3459153175354004, -1.398069143295288, 0.49460041522979736, -0.25341796875, -0.240478515625, -0.78076171875, 
380, 611527158, 0.6940405964851379, -1.112327218055725, 70.81997680664062, 0.17584486305713654, 0.11614985018968582, 9.42001724243164, 1.3324238061904907, -1.447725772857666, 0.487857848405838, -0.25439453125, -0.239990234375, -0.78125, 
381, 611543825, 0.6940411925315857, -1.1134917736053467, 70.82042694091797, 0.17244288325309753, 0.12087178975343704, 9.425660133361816, 1.3298754692077637, -1.532286286354065, 0.5264946818351746, -0.25634765625, -0.241455078125, -0.78173828125, 
382, 611560492, 0.694068431854248, -1.114552617073059, 70.8210220336914, 0.17718766629695892, 0.11960709095001221, 9.454292297363281, 1.3316043615341187, -1.526062250137329, 0.5449102520942688, -0.2548828125, -0.239501953125, -0.78125, 
383, 611577159, 0.6950401067733765, -1.1152287721633911, 70.82298278808594, 0.17319586873054504, 0.10572962462902069, 9.440291404724121, 1.3898348808288574, -1.5021145343780518, 0.6018729209899902, -0.2568359375, -0.241943359375, -0.783203125, 
384, 611593826, 0.6940730810165405, -1.115199089050293, 70.82341766357422, 0.1861940175294876, 0.11471094936132431, 9.434171676635742, 1.2727910280227661, -1.4602055549621582, 0.5877665877342224, -0.2529296875, -0.239013671875, -0.778076171875, 
385, 611610493, 0.6935422420501709, -1.1157703399658203, 70.82329559326172, 0.18425370752811432, 0.12848339974880219, 9.426983833312988, 1.2971421480178833, -1.4968637228012085, 0.5051976442337036, -0.2529296875, -0.239990234375, -0.7783203125, 
386, 611627160, 0.6939986944198608, -1.1165757179260254, 70.82154846191406, 0.18390460312366486, 0.12019333243370056, 9.450943946838379, 1.3566021919250488, -1.5113861560821533, 0.5005489587783813, -0.251953125, -0.237060546875, -0.7822265625, 
387, 611643827, 0.6940027475357056, -1.1155935525894165, 70.82209014892578, 0.16703996062278748, 0.11567602306604385, 9.456605911254883, 1.330771803855896, -1.403198003768921, 0.558100700378418, -0.2548828125, -0.238037109375, -0.7802734375, 
388, 611660494, 0.6938157081604004, -1.1156755685806274, 70.82232666015625, 0.16073961555957794, 0.11893023550510406, 9.43952465057373, 1.318816900253296, -1.4679275751113892, 0.5161406397819519, -0.2548828125, -0.239013671875, -0.78125, 
389, 611677161, 0.6948762536048889, -1.116056203842163, 70.82250213623047, 0.18696384131908417, 0.12233541905879974, 9.444966316223145, 1.3941184282302856, -1.4854341745376587, 0.5442121624946594, -0.25146484375, -0.239501953125, -0.78271484375, 
390, 611693828, 0.6952440738677979, -1.1167640686035156, 70.82093811035156, 0.18014049530029297, 0.11290515214204788, 9.445899963378906, 1.3504743576049805, -1.505232572555542, 0.4627382159233093, -0.2548828125, -0.239990234375, -0.777099609375, 
391, 611710495, 0.6950547099113464, -1.1166763305664062, 70.82070922851562, 0.18396008014678955, 0.12158636003732681, 9.430063247680664, 1.3176453113555908, -1.4573177099227905, 0.516326367855072, -0.25146484375, -0.239501953125, -0.777587890625, 
392, 611727162, 0.694121241569519, -1.1157258749008179, 70.82038116455078, 0.17873013019561768, 0.12900999188423157, 9.44509506225586, 1.2729638814926147, -1.4062459468841553, 0.47658830881118774, -0.25439453125, -0.239990234375, -0.776611328125, 
393, 611743829, 0.6938114166259766, -1.115501880645752, 70.82066345214844, 0.18442381918430328, 0.11761562526226044, 9.451565742492676, 1.3100125789642334, -1.449838638305664, 0.46115660667419434, -0.25439453125, -0.242431640625, -0.78125, 
394, 611760496, 0.6951215267181396, -1.1151105165481567, 70.81983184814453, 0.18527644872665405, 0.12123619765043259, 9.433177947998047, 1.4075202941894531, -1.440118670463562, 0.49759072065353394, -0.25390625, -0.239013671875, -0.777099609375, 
395, 611777163, 0.6946842670440674, -1.1152746677398682, 70.8206787109375, 0.18845246732234955, 0.1251109391450882, 9.421911239624023, 1.304653286933899, -1.4717825651168823, 0.5508202910423279, -0.25537109375, -0.240478515625, -0.783203125, 
396, 611793830, 0.6945512294769287, -1.1169847249984741, 70.82032012939453, 0.1896565556526184, 0.11902765184640884, 9.442529678344727, 1.320334792137146, -1.5655187368392944, 0.47669079899787903, -0.2578125, -0.240966796875, -0.78076171875, 
397, 611810497, 0.6940438747406006, -1.1173783540725708, 70.82286071777344, 0.1741439402103424, 0.10767890512943268, 9.452877044677734, 1.2998316287994385, -1.4860038757324219, 0.5366884469985962, -0.25390625, -0.238037109375, -0.7822265625, 
398, 611827164, 0.6935396790504456, -1.1173933744430542, 70.82250213623047, 0.19656391441822052, 0.11636268347501755, 9.426178932189941, 1.2983845472335815, -1.4638490676879883, 0.48228713870048523, -0.2529296875, -0.239990234375, -0.7802734375, 
399, 611843831, 0.6931356191635132, -1.1187160015106201, 70.82318115234375, 0.19438078999519348, 0.13140906393527985, 9.46204662322998, 1.3056843280792236, -1.5417245626449585, 0.5562310218811035, -0.25244140625, -0.240966796875, -0.77978515625, 
400, 611860498, 0.6929337978363037, -1.1177808046340942, 70.82149505615234, 0.18267592787742615, 0.12028855830430984, 9.439750671386719, 1.3172739744186401, -1.4064764976501465, 0.5174917578697205, -0.25390625, -0.240966796875, -0.78173828125, 
401, 611877165, 0.6935082077980042, -1.118133544921875, 70.82124328613281, 0.17705675959587097, 0.1344466358423233, 9.439699172973633, 1.3646894693374634, -1.483871579170227, 0.5392817258834839, -0.25341796875, -0.239501953125, -0.78369140625, 
402, 611893832, 0.6949058771133423, -1.118216633796692, 70.82105255126953, 0.1765899360179901, 0.10144878923892975, 9.429075241088867, 1.4132511615753174, -1.4676462411880493, 0.5024635791778564, -0.25390625, -0.238037109375, -0.7802734375, 
403, 611910499, 0.6951826214790344, -1.1180084943771362, 70.82144165039062, 0.1769593507051468, 0.12187140434980392, 9.427082061767578, 1.3468372821807861, -1.4497426748275757, 0.5580174326896667, -0.25439453125, -0.240966796875, -0.779296875, 
404, 611927166, 0.6949334144592285, -1.1189643144607544, 70.82135772705078, 0.17630065977573395, 0.1108410581946373, 9.444168090820312, 1.3146165609359741, -1.5199215412139893, 0.5250667333602905, -0.25341796875, -0.235107421875, -0.777099609375, 
405, 611943833, 0.6938740611076355, -1.119626522064209, 70.81969451904297, 0.1839846670627594, 0.11237258464097977, 9.426796913146973, 1.2659587860107422, -1.5019030570983887, 0.5468823313713074, -0.25244140625, -0.239013671875, -0.7822265625, 
406, 611960500, 0.6942315101623535, -1.1195082664489746, 70.81880187988281, 0.19671106338500977, 0.12080630660057068, 9.459174156188965, 1.3513964414596558, -1.455825686454773, 0.5159998536109924, -0.25341796875, -0.243896484375, -0.783203125, 
407, 611977167, 0.6939860582351685, -1.119337797164917, 70.81652069091797, 0.1905159205198288, 0.1121869832277298, 9.420462608337402, 1.3131693601608276, -1.4529571533203125, 0.45472145080566406, -0.2548828125, -0.239013671875, -0.777099609375, 
408, 611993834, 0.6941666603088379, -1.1194803714752197, 70.81840515136719, 0.20815427601337433, 0.10877040773630142, 9.42739200592041, 1.3410104513168335, -1.4708092212677002, 0.5429059863090515, -0.25439453125, -0.240966796875, -0.78076171875, 
409, 612010501, 0.6937876343727112, -1.1192641258239746, 70.81907653808594, 0.17387418448925018, 0.11132118105888367, 9.442925453186035, 1.3060874938964844, -1.449768304824829, 0.5038465857505798, -0.25244140625, -0.240478515625, -0.7783203125, 
410, 612027168, 0.6939079165458679, -1.1189464330673218, 70.81851196289062, 0.18848824501037598, 0.12086434662342072, 9.437097549438477, 1.336733102798462, -1.4435701370239258, 0.5114151835441589, -0.2529296875, -0.241455078125, -0.7802734375, 
411, 612043835, 0.6935698986053467, -1.119219183921814, 70.8186264038086, 0.17932631075382233, 0.12063578516244888, 9.432456970214844, 1.3088600635528564, -1.4786401987075806, 0.5067856311798096, -0.25439453125, -0.239501953125, -0.78076171875, 
412, 612060502, 0.6934546828269958, -1.119135856628418, 70.81988525390625, 0.17163927853107452, 0.11817054450511932, 9.437323570251465, 1.3236641883850098, -1.457189679145813, 0.5541563630104065, -0.2529296875, -0.239990234375, -0.7802734375, 
413, 612077169, 0.6951346397399902, -1.1180096864700317, 70.81871795654297, 0.17847831547260284, 0.1192612498998642, 9.444616317749023, 1.430539608001709, -1.3950724601745605, 0.5165889859199524, -0.255859375, -0.239013671875, -0.78076171875, 
414, 612093836, 0.6944035887718201, -1.1184016466140747, 70.82040405273438, 0.19270415604114532, 0.11904717236757278, 9.446053504943848, 1.2864296436309814, -1.485164999961853, 0.5622563362121582, -0.25439453125, -0.239501953125, -0.78173828125, 
415, 612110503, 0.6946901082992554, -1.118444800376892, 70.82113647460938, 0.18024282157421112, 0.12892542779445648, 9.41782283782959, 1.3468629121780396, -1.4652512073516846, 0.5470296144485474, -0.25146484375, -0.239501953125, -0.7822265625, 
416, 612127170, 0.6939616203308105, -1.1196731328964233, 70.81937408447266, 0.2004895955324173, 0.13101449608802795, 9.446969985961914, 1.287313461303711, -1.5351227521896362, 0.5794937014579773, -0.25341796875, -0.239990234375, -0.78271484375, 
417, 612143837, 0.6944754123687744, -1.1196991205215454, 70.81900024414062, 0.18905703723430634, 0.1054651066660881, 9.434589385986328, 1.3604377508163452, -1.4639065265655518, 0.5399348735809326, -0.25341796875, -0.239990234375, -0.78271484375, 
418, 612160504, 0.6938707232475281, -1.1197400093078613, 70.81926727294922, 0.17728693783283234, 0.10981129109859467, 9.439215660095215, 1.2933579683303833, -1.4644827842712402, 0.5377577543258667, -0.25341796875, -0.239990234375, -0.78076171875, 
419, 612177171, 0.693734347820282, -1.1198381185531616, 70.81979370117188, 0.1866455227136612, 0.12416835874319077, 9.422218322753906, 1.321640968322754, -1.4675947427749634, 0.5313610434532166, -0.2529296875, -0.240966796875, -0.78369140625, 
420, 612193838, 0.6936343312263489, -1.1196448802947998, 70.81697082519531, 0.17605631053447723, 0.13470269739627838, 9.4312744140625, 1.3236514329910278, -1.450748085975647, 0.5471640825271606, -0.25390625, -0.236572265625, -0.779296875, 
421, 612210505, 0.694490909576416, -1.1184059381484985, 70.81891632080078, 0.1778942048549652, 0.1167023777961731, 9.439733505249023, 1.382445216178894, -1.3878239393234253, 0.5623267889022827, -0.2529296875, -0.240966796875, -0.7802734375, 
422, 612227172, 0.6948723196983337, -1.1176656484603882, 70.81793975830078, 0.18327830731868744, 0.12085222452878952, 9.447757720947266, 1.351178526878357, -1.4182136058807373, 0.4825880229473114, -0.24853515625, -0.239013671875, -0.78076171875, 
423, 612243839, 0.6954153180122375, -1.1174784898757935, 70.81797790527344, 0.17529241740703583, 0.11754123121500015, 9.441575050354004, 1.3614107370376587, -1.4519836902618408, 0.4885941743850708, -0.25048828125, -0.239990234375, -0.778076171875, 
424, 612260506, 0.695826530456543, -1.1170921325683594, 70.81891632080078, 0.18197523057460785, 0.12976472079753876, 9.415973663330078, 1.3544955253601074, -1.4390876293182373, 0.5526131391525269, -0.251953125, -0.239501953125, -0.78369140625, 
425, 612277173, 0.6952697038650513, -1.1170992851257324, 70.81816101074219, 0.17020565271377563, 0.11772527545690536, 9.433669090270996, 1.2963738441467285, -1.4622546434402466, 0.5301060080528259, -0.251953125, -0.239013671875, -0.779296875, 
426, 612293840, 0.6957179307937622, -1.116398572921753, 70.81865692138672, 0.17674486339092255, 0.11332537978887558, 9.420204162597656, 1.3559234142303467, -1.4208451509475708, 0.515481173992157, -0.25439453125, -0.243408203125, -0.78173828125, 
427, 612310507, 0.6950865983963013, -1.1171143054962158, 70.8150863647461, 0.1829068660736084, 0.11783100664615631, 9.442179679870605, 1.2906559705734253, -1.5055911540985107, 0.4549647867679596, -0.25390625, -0.243408203125, -0.7841796875, 
428, 612327174, 0.6948176026344299, -1.1171740293502808, 70.81482696533203, 0.18217425048351288, 0.12231473624706268, 9.440924644470215, 1.3143221139907837, -1.4654946327209473, 0.5990362167358398, -0.251953125, -0.241943359375, -0.78369140625, 
429, 612343841, 0.6949099898338318, -1.1172417402267456, 70.81067657470703, 0.18246762454509735, 0.11572577059268951, 9.445090293884277, 1.333966851234436, -1.46697998046875, 0.4709470570087433, -0.25390625, -0.238525390625, -0.783203125, 
430, 612360508, 0.6948006749153137, -1.1177828311920166, 70.81101989746094, 0.17572277784347534, 0.1202298104763031, 9.436505317687988, 1.3236961364746094, -1.4947696924209595, 0.5304198265075684, -0.24951171875, -0.242431640625, -0.78271484375, 
431, 612377175, 0.6952900886535645, -1.1182039976119995, 70.8065414428711, 0.18147560954093933, 0.10983478277921677, 9.436473846435547, 1.358183741569519, -1.4880977869033813, 0.5159614086151123, -0.25634765625, -0.240478515625, -0.7822265625, 
432, 612393842, 0.6954203248023987, -1.118587851524353, 70.80854034423828, 0.18217340111732483, 0.1010848805308342, 9.433387756347656, 1.3383275270462036, -1.484659194946289, 0.549776554107666, -0.2529296875, -0.243896484375, -0.779296875, 
433, 612410509, 0.6950132846832275, -1.1193448305130005, 70.80790710449219, 0.18497802317142487, 0.11555808037519455, 9.436463356018066, 1.3052679300308228, -1.5083445310592651, 0.5308807492256165, -0.25537109375, -0.239501953125, -0.78662109375, 
434, 612427176, 0.6955682039260864, -1.1195712089538574, 70.80780792236328, 0.17601336538791656, 0.11555782705545425, 9.422471046447754, 1.3619359731674194, -1.475867748260498, 0.48818448185920715, -0.25341796875, -0.237548828125, -0.7841796875, 
435, 612443843, 0.6965047717094421, -1.1194961071014404, 70.81050109863281, 0.18654727935791016, 0.12321176379919052, 9.430815696716309, 1.3862041234970093, -1.4577594995498657, 0.5464021563529968, -0.2548828125, -0.241455078125, -0.78076171875, 
436, 612460510, 0.6978034973144531, -1.11884343624115, 70.81099700927734, 0.17886054515838623, 0.12110375612974167, 9.4358549118042, 1.4073985815048218, -1.4234256744384766, 0.5216730237007141, -0.2548828125, -0.242431640625, -0.77783203125, 
437, 612477177, 0.6985974907875061, -1.118272066116333, 70.81086730957031, 0.18450354039669037, 0.11256196349859238, 9.450688362121582, 1.377828598022461, -1.427600622177124, 0.5686338543891907, -0.2568359375, -0.241455078125, -0.77880859375, 
438, 612493844, 0.699569821357727, -1.1190203428268433, 70.80879211425781, 0.18584668636322021, 0.11838199943304062, 9.425187110900879, 1.3883875608444214, -1.506622314453125, 0.5678079724311829, -0.25537109375, -0.241943359375, -0.7802734375, 
439, 612510511, 0.7010502219200134, -1.119088053703308, 70.8076171875, 0.17620152235031128, 0.12478481978178024, 9.43018627166748, 1.418597936630249, -1.4666922092437744, 0.4962460696697235, -0.255859375, -0.242919921875, -0.78076171875, 
440, 612527178, 0.7012559771537781, -1.1190955638885498, 70.80661010742188, 0.18550844490528107, 0.1227458119392395, 9.450825691223145, 1.3419965505599976, -1.4627925157546997, 0.5411899089813232, -0.25634765625, -0.242431640625, -0.7822265625, 
441, 612543845, 0.7007516622543335, -1.1199944019317627, 70.8067855834961, 0.1828937977552414, 0.11795582622289658, 9.438302040100098, 1.2984741926193237, -1.5161372423171997, 0.510230541229248, -0.25732421875, -0.240966796875, -0.77978515625, 
442, 612560512, 0.7011216282844543, -1.1194953918457031, 70.80704498291016, 0.18064217269420624, 0.12204637378454208, 9.444090843200684, 1.3524913787841797, -1.432524561882019, 0.5524914860725403, -0.25390625, -0.241455078125, -0.7822265625, 
443, 612577179, 0.7022916078567505, -1.1199122667312622, 70.80767822265625, 0.1794108748435974, 0.12552213668823242, 9.436498641967773, 1.4005346298217773, -1.4868942499160767, 0.5551232695579529, -0.25537109375, -0.239013671875, -0.78076171875, 
444, 612593846, 0.7025730609893799, -1.1194961071014404, 70.80912780761719, 0.17627637088298798, 0.11705321073532104, 9.42762565612793, 1.3454669713974, -1.4379353523254395, 0.48833808302879333, -0.25439453125, -0.237548828125, -0.78271484375, 
445, 612610513, 0.7022779583930969, -1.1187398433685303, 70.80781555175781, 0.17714117467403412, 0.12819689512252808, 9.452422142028809, 1.3104352951049805, -1.417054533958435, 0.4684050381183624, -0.25439453125, -0.238525390625, -0.7841796875, 
446, 612627180, 0.7024948000907898, -1.1181820631027222, 70.80806732177734, 0.18929633498191833, 0.11675646901130676, 9.428564071655273, 1.3436932563781738, -1.4284136295318604, 0.5605081915855408, -0.2529296875, -0.244384765625, -0.783203125, 
447, 612643847, 0.70329350233078, -1.1183944940567017, 70.80870819091797, 0.17283286154270172, 0.11117196083068848, 9.438826560974121, 1.3776687383651733, -1.4745038747787476, 0.5770156979560852, -0.251953125, -0.239501953125, -0.78369140625, 
448, 612660514, 0.7036868929862976, -1.11885666847229, 70.8104248046875, 0.18150456249713898, 0.12050344049930573, 9.460515022277832, 1.353720784187317, -1.4902684688568115, 0.5393649935722351, -0.25439453125, -0.241943359375, -0.7802734375, 
449, 612677181, 0.7035991549491882, -1.1188559532165527, 70.80973052978516, 0.18326769769191742, 0.11017507314682007, 9.449065208435059, 1.3250150680541992, -1.4621391296386719, 0.5570313334465027, -0.255859375, -0.239501953125, -0.7822265625, 
450, 612693848, 0.7040639519691467, -1.1183686256408691, 70.8101806640625, 0.17763175070285797, 0.10977907478809357, 9.439273834228516, 1.3570505380630493, -1.4322044849395752, 0.534805953502655, -0.25146484375, -0.239990234375, -0.779296875, 
451, 612710515, 0.704124927520752, -1.1183708906173706, 70.80928039550781, 0.18215881288051605, 0.12254989892244339, 9.427999496459961, 1.334318995475769, -1.4631316661834717, 0.5413883328437805, -0.25390625, -0.241943359375, -0.77978515625, 
452, 612727182, 0.7044194936752319, -1.1186680793762207, 70.80567169189453, 0.19305762648582458, 0.11835145205259323, 9.44299602508545, 1.3453900814056396, -1.4803626537322998, 0.4732010066509247, -0.25341796875, -0.238037109375, -0.783203125, 
453, 612743849, 0.7055400609970093, -1.1191253662109375, 70.80829620361328, 0.171869158744812, 0.11469139158725739, 9.441679000854492, 1.3976337909698486, -1.4899483919143677, 0.5541948080062866, -0.25439453125, -0.239990234375, -0.7802734375, 
454, 612760516, 0.7052202224731445, -1.1194345951080322, 70.80787658691406, 0.18632438778877258, 0.11877454072237015, 9.45080280303955, 1.3088728189468384, -1.4809837341308594, 0.46280860900878906, -0.251953125, -0.239013671875, -0.779296875, 
455, 612777183, 0.7049089074134827, -1.1203110218048096, 70.80682373046875, 0.17913414537906647, 0.10576295852661133, 9.423620223999023, 1.3106402158737183, -1.5157018899917603, 0.5013045072555542, -0.25439453125, -0.238037109375, -0.779296875, 
456, 612793850, 0.7040903568267822, -1.1189535856246948, 70.80744171142578, 0.1859895884990692, 0.133217915892601, 9.426413536071777, 1.2800331115722656, -1.3811968564987183, 0.48656442761421204, -0.25048828125, -0.239501953125, -0.78076171875, 
457, 612810517, 0.7034264802932739, -1.1186761856079102, 70.80519104003906, 0.1850239336490631, 0.12724927067756653, 9.4450101852417, 1.2900348901748657, -1.4451773166656494, 0.543424665927887, -0.25341796875, -0.238525390625, -0.78271484375, 
458, 612827184, 0.7023012638092041, -1.1180994510650635, 70.8055419921875, 0.18143689632415771, 0.12600167095661163, 9.416951179504395, 1.2616302967071533, -1.428445816040039, 0.5257006287574768, -0.25439453125, -0.235595703125, -0.78271484375, 
459, 612843851, 0.7024418115615845, -1.1183665990829468, 70.80902862548828, 0.18187548220157623, 0.11861840635538101, 9.443133354187012, 1.3371942043304443, -1.4785441160202026, 0.4954712688922882, -0.25244140625, -0.239990234375, -0.78125, 
460, 612860518, 0.7026930451393127, -1.118528127670288, 70.80885314941406, 0.1877358853816986, 0.12308107316493988, 9.417826652526855, 1.3443657159805298, -1.4719617366790771, 0.4983270466327667, -0.255859375, -0.238037109375, -0.7783203125, 
461, 612877185, 0.7027572393417358, -1.119114875793457, 70.81228637695312, 0.180145725607872, 0.11907412856817245, 9.43853759765625, 1.333416223526001, -1.4977025985717773, 0.521621823310852, -0.2548828125, -0.241455078125, -0.783203125, 
462, 612893852, 0.7022897005081177, -1.119352102279663, 70.81315612792969, 0.17372626066207886, 0.10586471110582352, 9.430290222167969, 1.302911400794983, -1.4758164882659912, 0.6062461733818054, -0.25439453125, -0.237548828125, -0.78125, 
463, 612910519, 0.7024555802345276, -1.1199814081192017, 70.81399536132812, 0.17838406562805176, 0.11420351266860962, 9.435850143432617, 1.3389039039611816, -1.4998539686203003, 0.5014581680297852, -0.25439453125, -0.237548828125, -0.77880859375, 
464, 612927186, 0.7028346657752991, -1.1204993724822998, 70.81602478027344, 0.17359375953674316, 0.1221742331981659, 9.42638874053955, 1.3520432710647583, -1.4940719604492188, 0.4979749023914337, -0.25341796875, -0.239501953125, -0.78271484375, 
465, 612943853, 0.7022104263305664, -1.1200770139694214, 70.81641387939453, 0.18950404226779938, 0.13084231317043304, 9.445714950561523, 1.2912449836730957, -1.437192678451538, 0.48152515292167664, -0.25439453125, -0.240966796875, -0.7802734375, 
466, 612960520, 0.7028124928474426, -1.1204336881637573, 70.8163833618164, 0.17973880469799042, 0.11058835685253143, 9.42988109588623, 1.3655985593795776, -1.484281301498413, 0.5214169025421143, -0.25732421875, -0.240966796875, -0.7783203125, 
467, 612977187, 0.7031208872795105, -1.1203889846801758, 70.8213119506836, 0.1783134490251541, 0.11545507609844208, 9.448775291442871, 1.3467220067977905, -1.4600645303726196, 0.4805774390697479, -0.25830078125, -0.239990234375, -0.7802734375, 
468, 612993854, 0.7033177614212036, -1.1199349164962769, 70.82364654541016, 0.1807435005903244, 0.1195303201675415, 9.435609817504883, 1.3420542478561401, -1.4348810911178589, 0.5648496747016907, -0.2548828125, -0.238037109375, -0.7822265625, 
469, 613010521, 0.7037525773048401, -1.1192655563354492, 70.82437133789062, 0.189124196767807, 0.11850413680076599, 9.43159294128418, 1.3563843965530396, -1.421427845954895, 0.5373671650886536, -0.25537109375, -0.239013671875, -0.7783203125, 
470, 613027188, 0.704806387424469, -1.1186174154281616, 70.82481384277344, 0.18356871604919434, 0.1311950385570526, 9.422338485717773, 1.3942400217056274, -1.422747015953064, 0.5924857258796692, -0.2548828125, -0.239501953125, -0.77978515625, 
471, 613043855, 0.7043965458869934, -1.1186481714248657, 70.8257827758789, 0.1870861053466797, 0.11476733535528183, 9.428805351257324, 1.3045507669448853, -1.4643803834915161, 0.5466069579124451, -0.25341796875, -0.240478515625, -0.7841796875, 
472, 613060522, 0.7050343751907349, -1.1186027526855469, 70.82624816894531, 0.18303436040878296, 0.11651424318552017, 9.436423301696777, 1.368390440940857, -1.4593092203140259, 0.5372071266174316, -0.25732421875, -0.239990234375, -0.77783203125, 
473, 613077189, 0.7043837904930115, -1.1189024448394775, 70.8274154663086, 0.1826171576976776, 0.11285853385925293, 9.435735702514648, 1.2912193536758423, -1.4802218675613403, 0.5503208637237549, -0.2548828125, -0.237548828125, -0.77880859375, 
474, 613093856, 0.7041313052177429, -1.1190769672393799, 70.82897186279297, 0.17926347255706787, 0.12271974235773087, 9.461710929870605, 1.3154233694076538, -1.4718080759048462, 0.5975890755653381, -0.251953125, -0.238525390625, -0.7822265625, 
475, 613110523, 0.7027429342269897, -1.1196829080581665, 70.82647705078125, 0.18649737536907196, 0.12216737121343613, 9.436015129089355, 1.244706630706787, -1.4995594024658203, 0.4409802258014679, -0.25390625, -0.241943359375, -0.78076171875, 
476, 613127190, 0.7028828263282776, -1.1200448274612427, 70.82434844970703, 0.191379576921463, 0.09897486865520477, 9.438637733459473, 1.3373862504959106, -1.4836667776107788, 0.515333890914917, -0.2548828125, -0.241943359375, -0.7802734375, 
477, 613143857, 0.7018548250198364, -1.1196975708007812, 70.82498168945312, 0.17719773948192596, 0.12182220816612244, 9.450390815734863, 1.2672779560089111, -1.4419502019882202, 0.5186571478843689, -0.25146484375, -0.240966796875, -0.78271484375, 
478, 613160524, 0.7021917104721069, -1.1197857856750488, 70.82425689697266, 0.1829870194196701, 0.12100142240524292, 9.433524131774902, 1.3489502668380737, -1.4679275751113892, 0.4680015742778778, -0.2568359375, -0.240478515625, -0.7783203125, 
479, 613177191, 0.7006081938743591, -1.1073507070541382, 70.82393646240234, 0.17336493730545044, 0.10860135406255722, 9.443086624145508, 1.3541755676269531, -1.4464131593704224, 0.5590420365333557, -0.25634765625, -0.239990234375, -0.783203125, 
480, 613193858, 0.7006705403327942, -1.1078088283538818, 70.82520294189453, 0.16611440479755402, 0.1264658421278, 9.440908432006836, 1.333627700805664, -1.4910112619400024, 0.5355743169784546, -0.255859375, -0.241455078125, -0.78076171875, 
481, 613210525, 0.7010515928268433, -1.1071842908859253, 70.8254623413086, 0.1864049732685089, 0.11423768103122711, 9.44018840789795, 1.3539512157440186, -1.4260958433151245, 0.5563846826553345, -0.25244140625, -0.237060546875, -0.7822265625, 
482, 613227192, 0.7015284299850464, -1.1063032150268555, 70.82780456542969, 0.1786634922027588, 0.11997240036725998, 9.408921241760254, 1.357914924621582, -1.411695122718811, 0.5090844035148621, -0.255859375, -0.240478515625, -0.7802734375, 
483, 613243859, 0.7021898031234741, -1.1056861877441406, 70.82817077636719, 0.17313295602798462, 0.1308378130197525, 9.433327674865723, 1.369120478630066, -1.4269603490829468, 0.5102113485336304, -0.255859375, -0.236572265625, -0.78076171875, 
484, 613260526, 0.7036517262458801, -1.1058076620101929, 70.82855987548828, 0.18649686872959137, 0.11704369634389877, 9.437216758728027, 1.4166960716247559, -1.471449613571167, 0.49707210063934326, -0.25341796875, -0.239501953125, -0.7802734375, 
485, 613277193, 0.7052392363548279, -1.1052762269973755, 70.82907104492188, 0.18761856853961945, 0.12191717326641083, 9.422294616699219, 1.4256925582885742, -1.4317820072174072, 0.5528886318206787, -0.25537109375, -0.242431640625, -0.78173828125, 
486, 613293860, 0.7066971659660339, -1.10630202293396, 70.82954406738281, 0.1770559847354889, 0.11747553944587708, 9.41450023651123, 1.41786789894104, -1.5247688293457031, 0.5658357739448547, -0.25244140625, -0.244384765625, -0.7822265625, 
487, 613310527, 0.7070831656455994, -1.1064482927322388, 70.82768249511719, 0.17787837982177734, 0.12342292070388794, 9.447158813476562, 1.3525298833847046, -1.4730567932128906, 0.49241694808006287, -0.2568359375, -0.240478515625, -0.7822265625, 
488, 613327194, 0.7083547115325928, -1.105601191520691, 70.82849884033203, 0.1863640993833542, 0.1038120687007904, 9.424673080444336, 1.4060156345367432, -1.4132574796676636, 0.5067920088768005, -0.25537109375, -0.241455078125, -0.78076171875, 
489, 613343861, 0.7074279189109802, -1.1059764623641968, 70.82767486572266, 0.17729812860488892, 0.11504241079092026, 9.416507720947266, 1.273674726486206, -1.48676598072052, 0.5186123251914978, -0.2548828125, -0.241455078125, -0.7822265625, 
490, 613360528, 0.7071554064750671, -1.1062368154525757, 70.82862854003906, 0.17851750552654266, 0.10924461483955383, 9.425419807434082, 1.313995599746704, -1.4787172079086304, 0.5674877762794495, -0.25390625, -0.241455078125, -0.77978515625, 
