PacketCounter,SampleTimeFine,Euler_X,Euler_Y,Euler_Z,Acc_X,Acc_Y,Acc_Z,Gyr_X,Gyr_Y,Gyr_Z,Mag_X,Mag_Y,Mag_Z,
0,2501247972,0.995916843,-0.016181571,98.84302521,0,0,0,0,0,0,0.321777344,-0.080810547,-1.02734375, 
1,2501256305,1.006388783,-0.029479844,98.8456955,0.002200828,0.164204895,9.419200897,1.257287502,-1.588517904,0.347546726,0.318847656,-0.079833984,-1.024414063, 
2,2501264638,1.016560555,-0.041725896,98.84883118,0.028242175,0.166029602,9.433794975,1.221273899,-1.463879108,0.403257668,0.322753906,-0.082275391,-1.024414063, 
3,2501272971,1.022050023,-0.059899379,98.83473206,0.037487525,0.14016372,9.444769859,1.308157444,-1.558984876,0.426208109,0.326171875,-0.085449219,-1.026855469, 
4,2501281304,1.032140374,-0.07181295,98.83733368,0.030608481,0.131108701,9.446578979,1.211386681,-1.422947407,0.339324564,0.323242188,-0.082275391,-1.0234375, 
5,2501289637,1.025217772,-0.110850677,98.87184906,0.027045805,0.140266135,9.439230919,1.260540485,-1.282017946,0.278516352,0.319335938,-0.081298828,-1.02734375, 
6,2501297970,1.035669446,-0.122969858,98.87535858,0.030499496,0.117897175,9.393458366,1.255750656,-1.445820928,0.447493494,0.322753906,-0.084472656,-1.025878906, 
7,2501306303,1.013427019,-0.157310784,98.87034607,0.027073288,0.121485204,9.433721542,1.268762589,-1.51477468,0.349186063,0.320800781,-0.083251953,-1.025878906, 
8,2501314636,1.024117231,-0.169296935,98.87286377,0.01634462,0.11599192,9.435576439,1.283516407,-1.432834744,0.326133251,0.321289063,-0.083984375,-1.027832031, 
9,2501322969,0.99407953,-0.195050746,98.88776398,0.011001841,0.132179573,9.422716141,1.208056927,-1.634418607,0.349390954,0.320800781,-0.079345703,-1.026367188, 
10,2501331302,1.004937887,-0.207029179,98.88995361,0.016799105,0.117514357,9.402580261,1.304801941,-1.432860136,0.288403422,0.319824219,-0.080322266,-1.02734375, 
11,2501339635,0.980632067,-0.217813,98.86650085,0.002426267,0.084626935,9.428320885,1.20654583,-1.362267375,0.363862962,0.320800781,-0.082275391,-1.026855469, 
12,2501347968,0.990700483,-0.230671212,98.86872864,-0.015868174,0.097096577,9.419182777,1.208031416,-1.539389849,0.295216829,0.321289063,-0.083496094,-1.027832031, 
13,2501356301,0.965762734,-0.234969079,98.87651825,0.008238222,0.111689486,9.42088604,1.198349237,-1.388496637,0.370445907,0.32421875,-0.084960938,-1.027832031, 
14,2501364634,0.975668728,-0.247749448,98.88013458,0.012005066,0.131530255,9.437285423,1.190255046,-1.526044846,0.460812867,0.321777344,-0.079833984,-1.024902344, 
15,2501372967,0.954171598,-0.24656786,98.90476227,0.019702267,0.125980601,9.442755699,1.162207365,-1.41144681,0.3410151,0.317871094,-0.082763672,-1.026855469, 
16,2501381300,0.964376748,-0.257737011,98.90817261,0.045206334,0.122015744,9.407859802,1.226371169,-1.332657456,0.432560354,0.321777344,-0.083984375,-1.028808594, 
17,2501389633,0.951319993,-0.258008927,98.92521667,0.052492857,0.147345245,9.391233444,1.237743855,-1.424510002,0.403206468,0.323242188,-0.081787109,-1.022460938, 
18,2501397966,0.961396813,-0.270040542,98.92817688,0.023392769,0.128968537,9.406061172,1.21143806,-1.437675714,0.37869367,0.319824219,-0.082275391,-1.026855469, 
19,2501406299,0.954762578,-0.27470535,98.92740631,0.03092093,0.145517498,9.435254097,1.316354036,-1.33619225,0.330718189,0.324707031,-0.082275391,-1.026367188, 
20,2501414632,0.965375841,-0.286569327,98.93009949,0.019952144,0.158193737,9.426084518,1.27698493,-1.418080926,0.347367436,0.323730469,-0.081298828,-1.02734375, 
21,2501422965,0.961974204,-0.291994303,98.9302597,0.005448803,0.156330243,9.426136971,1.234490871,-1.373665929,0.399851024,0.322753906,-0.080810547,-1.026367188, 
22,2501431298,0.972573042,-0.30373171,98.9329834,0.005433976,0.157963276,9.416966438,1.273680568,-1.403301477,0.350620449,0.321777344,-0.083251953,-1.026855469, 
23,2501439631,0.972954273,-0.308872551,98.92298126,0.005739952,0.165223554,9.438890457,1.185209036,-1.460549116,0.380486637,0.322753906,-0.079345703,-1.024414063, 
24,2501447964,0.983376682,-0.320797086,98.92560577,-0.003500944,0.170399845,9.400449753,1.252369642,-1.424638152,0.339247733,0.320800781,-0.083251953,-1.026367188, 
25,2501456297,0.986699581,-0.324422956,98.90483856,0.004054365,0.139230251,9.420689583,1.198502898,-1.411318898,0.429563582,0.325683594,-0.085449219,-1.026367188, 
26,2501464630,0.997165382,-0.336308718,98.907547,0.011309106,0.144422844,9.396819115,1.258926868,-1.419745684,0.350671679,0.323242188,-0.081298828,-1.02734375, 
27,2501472963,1.002848506,-0.339284629,98.92168427,0.013451922,0.131711379,9.438985825,1.314612269,-1.446026087,0.332536817,0.323242188,-0.084228516,-1.024414063, 
28,2501481296,1.013471007,-0.351388186,98.92453003,0.01546052,0.146296173,9.435220718,1.277010441,-1.445923567,0.368729711,0.32421875,-0.081298828,-1.026855469, 
29,2501489629,1.018725157,-0.354196012,98.93312836,0.017411342,0.116936624,9.433530807,1.260591626,-1.413137197,0.360481918,0.322265625,-0.080810547,-1.026367188, 
30,2501497962,1.029740572,-0.365666747,98.93597412,0.020985533,0.113111824,9.415210724,1.324627399,-1.370566487,0.366706192,0.322753906,-0.083740234,-1.026367188, 
31,2501506295,1.034060597,-0.368300498,98.91854095,0.008316271,0.111257628,9.409828186,1.18853879,-1.355710268,0.365502357,0.325683594,-0.080322266,-1.027832031, 
32,2501514628,1.044392109,-0.380237669,98.92177582,0.024754673,0.087185644,9.417196274,1.242764473,-1.424458981,0.413067997,0.3203125,-0.083740234,-1.025878906, 
33,2501522961,1.047958612,-0.382834852,98.90065765,0.010211557,0.118215546,9.400620461,1.214819074,-1.332759619,0.36860162,0.321289063,-0.083251953,-1.026367188, 
34,2501531294,1.057971835,-0.39560324,98.90354156,0.030373719,0.130643323,9.402219772,1.204829693,-1.524533749,0.375850499,0.322265625,-0.080810547,-1.027832031, 
35,2501539627,1.060571909,-0.398920208,98.90937042,-0.000419246,0.13620694,9.409747124,1.214767814,-1.386831522,0.367141604,0.321289063,-0.081787109,-1.024902344, 
36,2501547960,1.070889711,-0.410812497,98.9120636,0.014609536,0.139926597,9.449878693,1.242533803,-1.421385169,0.350748539,0.323730469,-0.081787109,-1.026855469, 
37,2501556293,1.074180007,-0.413410842,98.91004181,0.016325628,0.134282574,9.42610836,1.262487411,-1.281941295,0.384610534,0.322753906,-0.082763672,-1.026367188, 
38,2501564626,1.084686399,-0.425316632,98.91300964,0.014366637,0.150438905,9.415014267,1.263972878,-1.421282649,0.383457899,0.322753906,-0.080322266,-1.026855469, 
39,2501572959,1.088277936,-0.428146213,98.90529633,0.025438657,0.15773201,9.409365654,1.265791416,-1.295029998,0.39116776,0.322753906,-0.083251953,-1.02734375, 
40,2501581292,1.098361135,-0.439858019,98.9078064,0.020313924,0.134097993,9.455370903,1.212923527,-1.400125265,0.329539925,0.323730469,-0.081787109,-1.027832031, 
41,2501589625,1.101572037,-0.444288582,98.90200043,0.010901463,0.164582863,9.402103424,1.139205813,-1.460549116,0.356306762,0.321289063,-0.083251953,-1.024902344, 
42,2501597958,1.112135053,-0.456333488,98.90422058,0.01657577,0.166293234,9.414861679,1.271733999,-1.439673543,0.294960707,0.319335938,-0.085449219,-1.026367188, 
43,2501606291,1.116578698,-0.461083174,98.89891052,0.029253982,0.162209496,9.387302399,1.244429111,-1.486650109,0.428077906,0.321777344,-0.082763672,-1.025390625, 
44,2501614624,1.126924634,-0.472468108,98.90164185,0.018943066,0.153498188,9.435090065,1.245889187,-1.360730529,0.353771001,0.322265625,-0.081787109,-1.026367188, 
45,2501622957,1.13174212,-0.477361083,98.88663483,0.020831615,0.145955503,9.43880558,1.219737172,-1.475226283,0.403565109,0.322265625,-0.081298828,-1.02734375, 
46,2501631290,1.142598867,-0.489398539,98.88974762,-0.0029603,0.140341371,9.429946899,1.306697488,-1.437624693,0.402950406,0.3203125,-0.078857422,-1.0234375, 
47,2501639623,1.147801399,-0.493648618,98.85611725,0.011745602,0.131038025,9.418907166,1.244787931,-1.383194327,0.460403115,0.321289063,-0.084472656,-1.026367188, 
48,2501647956,1.157531023,-0.50501436,98.85926056,0.009958784,0.129036039,9.409788132,1.172376275,-1.357118964,0.406587571,0.324707031,-0.082763672,-1.027832031, 
49,2501656289,1.162674785,-0.508805811,98.85063934,0.017153045,0.132399648,9.400536537,1.247682214,-1.34587431,0.383176118,0.32421875,-0.083740234,-1.025878906, 
50,2501664622,1.173391938,-0.520072162,98.85316467,0.021190796,0.136284962,9.435256004,1.290073872,-1.34618175,0.333766311,0.322265625,-0.081787109,-1.025878906, 
51,2501672955,1.178097844,-0.524783611,98.83334351,0.031944327,0.123008095,9.409637451,1.212949276,-1.454145789,0.352772057,0.320800781,-0.081298828,-1.0234375, 
52,2501681288,1.188040614,-0.536613524,98.83641052,0.021005224,0.11913316,9.400647163,1.198528409,-1.414571762,0.398544669,0.325683594,-0.081787109,-1.027832031, 
53,2501689621,1.192465186,-0.541016519,98.81991577,0.030533012,0.119174093,9.420695305,1.193175197,-1.390392065,0.318116009,0.322753906,-0.080810547,-1.023925781, 
54,2501697954,1.20263052,-0.552419901,98.82266235,0.012284928,0.13735114,9.418899536,1.226268768,-1.36398375,0.360430747,0.322265625,-0.081787109,-1.027832031, 
55,2501706287,1.207459807,-0.557467341,98.78084564,0.033961445,0.113065518,9.400604248,1.270325184,-1.449330211,0.352413446,0.319824219,-0.082275391,-1.0234375, 
56,2501714620,1.21730125,-0.568809509,98.78330231,0.005120324,0.115160137,9.417422295,1.186720252,-1.35591507,0.326184481,0.323730469,-0.082275391,-1.027832031, 
57,2501722953,1.220690608,-0.573949695,98.77884674,0.001740796,0.13875021,9.42822361,1.113309979,-1.447152972,0.405819148,0.323730469,-0.084960938,-1.026367188, 
58,2501731286,1.230758429,-0.585248411,98.78180695,0.021730181,0.129207611,9.413449287,1.214972734,-1.350715399,0.386608422,0.321289063,-0.083251953,-1.024414063, 
59,2501739619,1.235005736,-0.590191543,98.78026581,0.027195467,0.14169699,9.409584999,1.228343606,-1.438930869,0.450977057,0.324707031,-0.078857422,-1.026367188, 
60,2501747952,1.245344996,-0.60257864,98.78344727,0.02942704,0.138112262,9.431588173,1.246094227,-1.480169892,0.416628361,0.32421875,-0.082275391,-1.027832031, 
61,2501756285,1.249121308,-0.607213974,98.74168396,0.022472991,0.150928095,9.433381081,1.169123173,-1.388240218,0.408406138,0.323242188,-0.080810547,-1.027832031, 
62,2501764618,1.259335637,-0.618338525,98.7443161,0.022350196,0.148842052,9.422422409,1.231160998,-1.33132565,0.348699421,0.322265625,-0.083496094,-1.028808594, 
63,2501772951,1.263849735,-0.623564959,98.72523499,0.026020685,0.161386296,9.424067497,1.247861624,-1.447255373,0.427949816,0.321777344,-0.083984375,-1.026855469, 
64,2501781284,1.273897648,-0.63577652,98.72782898,-0.00314322,0.152179524,9.420940399,1.211233139,-1.462444663,0.349595875,0.321777344,-0.083984375,-1.02734375, 
65,2501789617,1.278691411,-0.640854537,98.71246338,-0.003200851,0.137295842,9.410161972,1.258414507,-1.425201535,0.285099208,0.320800781,-0.085449219,-1.025390625, 
66,2501797950,1.288967729,-0.652575612,98.71535492,0.018707655,0.162517637,9.39125061,1.241124988,-1.40161097,0.385071576,0.321777344,-0.082275391,-1.028320313, 
67,2501806283,1.294990659,-0.657115698,98.71040344,0.018698815,0.133260086,9.404444695,1.400880933,-1.376688361,0.483788878,0.322265625,-0.082275391,-1.026367188, 
68,2501814616,1.305482268,-0.668534458,98.71286774,0.020768067,0.137051955,9.404384613,1.265381455,-1.365930319,0.332255036,0.323242188,-0.081298828,-1.026855469, 
69,2501822949,1.310153842,-0.673229694,98.6944809,0.011953655,0.126234427,9.424824715,1.228983641,-1.395642638,0.294986308,0.3203125,-0.083496094,-1.02734375, 
70,2501831282,1.321317554,-0.685383797,98.69704437,0.035789687,0.105950452,9.435747147,1.34729588,-1.456169248,0.348596901,0.321777344,-0.082275391,-1.027832031, 
71,2501839615,1.326234937,-0.689413071,98.68384552,0.02523927,0.117266171,9.446766853,1.266175628,-1.312883139,0.422032952,0.321777344,-0.080322266,-1.027832031, 
72,2501847948,1.336339474,-0.70159328,98.68629456,0.029158374,0.115404993,9.461418152,1.220966458,-1.459294081,0.336481363,0.322265625,-0.080322266,-1.024902344, 
73,2501856281,1.34117043,-0.706474721,98.65683746,0.028858799,0.111303858,9.435860634,1.278701067,-1.403455257,0.365169376,0.321777344,-0.080810547,-1.0234375, 
74,2501864614,1.351755261,-0.718222499,98.65911102,0.028430404,0.15090315,9.391392708,1.278265595,-1.408731818,0.312736988,0.323730469,-0.080810547,-1.022949219, 
75,2501872947,1.35608089,-0.723108768,98.64324188,0.023583122,0.129416361,9.430258751,1.239588141,-1.394977093,0.393293798,0.322265625,-0.081298828,-1.024902344, 
76,2501881280,1.366917968,-0.734374642,98.64559937,0.021824792,0.153112754,9.426298141,1.307978034,-1.351381183,0.323571771,0.324707031,-0.084228516,-1.025878906, 
77,2501889613,1.370687246,-0.739569485,98.61971283,0.016314706,0.145564258,9.419213295,1.168944001,-1.427711844,0.382638246,0.321777344,-0.084472656,-1.026367188, 
78,2501897946,1.380930305,-0.752229631,98.62255096,0.005156131,0.172493905,9.398878098,1.239319086,-1.516311407,0.387620211,0.324707031,-0.081298828,-1.026855469, 
79,2501906279,1.385717392,-0.757690012,98.6102829,0.011917631,0.160564721,9.464898109,1.283516407,-1.460856557,0.367167234,0.322753906,-0.080322266,-1.023925781, 
80,2501914612,1.396399736,-0.770011902,98.61229706,0.029752631,0.152548119,9.42812252,1.290995717,-1.479478002,0.288582742,0.321777344,-0.081787109,-1.026855469, 
81,2501922945,1.400844693,-0.774359405,98.58789825,0.020814996,0.148971409,9.428352356,1.225320935,-1.334014893,0.42899999,0.320800781,-0.082763672,-1.026367188, 
82,2501931278,1.41057241,-0.785877049,98.59049988,0.015191523,0.144992158,9.417552948,1.177038193,-1.382016063,0.354385793,0.318359375,-0.079833984,-1.026367188, 
83,2501939611,1.415341616,-0.790914237,98.57476044,0.027991889,0.148353532,9.417300224,1.257364154,-1.414930105,0.362121254,0.322753906,-0.083007813,-1.029785156, 
84,2501947944,1.42624557,-0.802471578,98.57801056,0.050104409,0.142797828,9.424338341,1.322040081,-1.384987116,0.436735511,0.322753906,-0.083984375,-1.02734375, 
85,2501956277,1.430990577,-0.807300866,98.56252289,0.024413047,0.135424256,9.415787697,1.252958655,-1.389930844,0.412811786,0.319335938,-0.082763672,-1.023925781, 
86,2501964610,1.441976547,-0.819193125,98.56575012,0.028488623,0.148406878,9.43569088,1.331748009,-1.426021338,0.435326695,0.323242188,-0.082275391,-1.026855469, 
87,2501972943,1.447475195,-0.82430166,98.54953766,0.019773392,0.150579259,9.450505257,1.345169902,-1.417414904,0.285944551,0.318359375,-0.080322266,-1.024902344, 
88,2501981276,1.458027959,-0.835660934,98.55213165,0.023234099,0.14664422,9.432221413,1.278752446,-1.364214182,0.358253539,0.321289063,-0.083496094,-1.028808594, 
89,2501989609,1.462421179,-0.841082335,98.53423309,0.020858509,0.155036807,9.395521164,1.211233139,-1.45427382,0.351440161,0.32421875,-0.080810547,-1.029296875, 
90,2501997942,1.472664595,-0.853036463,98.5369873,0.030769434,0.144457757,9.432180405,1.242712975,-1.436113238,0.380512238,0.322753906,-0.081298828,-1.028320313, 
91,2502006275,1.477231503,-0.857751966,98.49697876,0.012608933,0.14449501,9.430743217,1.230776787,-1.372666717,0.314504355,0.3203125,-0.081787109,-1.025878906, 
92,2502014608,1.486949325,-0.869688451,98.49976349,0.006858957,0.127601057,9.418351173,1.180496097,-1.432629824,0.384380013,0.322265625,-0.082275391,-1.028320313, 
93,2502022941,1.492272496,-0.873799741,98.48085022,0.025471192,0.136849999,9.430691719,1.322808743,-1.302406907,0.321189672,0.322753906,-0.081298828,-1.024902344, 
94,2502031274,1.502028584,-0.88481617,98.48364258,0.024953535,0.132606328,9.401502609,1.185670257,-1.324435234,0.383406729,0.320800781,-0.080322266,-1.026855469, 
95,2502039607,1.506492615,-0.889090717,98.46731567,0.02167587,0.152877316,9.417729378,1.229470491,-1.326612234,0.335431188,0.322753906,-0.083251953,-1.026855469, 
96,2502047940,1.517372251,-0.900508583,98.47045135,0.018704727,0.127914071,9.465893745,1.322065711,-1.371949553,0.426720351,0.321289063,-0.083251953,-1.026367188, 
97,2502056273,1.522016048,-0.905283868,98.45222473,0.027419047,0.127343342,9.438297272,1.254905462,-1.384808064,0.43407166,0.322265625,-0.084960938,-1.026367188, 
98,2502064606,1.533120871,-0.91683495,98.45514679,0.04035541,0.154652596,9.437577248,1.34965241,-1.390289426,0.402002603,0.320800781,-0.083740234,-1.025390625, 
99,2502072939,1.537259221,-0.92140919,98.44037628,0.047008224,0.131996542,9.399417877,1.201089859,-1.367825747,0.303310961,0.323730469,-0.079833984,-1.027832031, 
100,2502081272,1.547840595,-0.933017612,98.44252777,0.034700628,0.141447663,9.423358917,1.286385298,-1.399151921,0.312557667,0.320800781,-0.084716797,-1.021484375, 
101,2502089605,1.552201986,-0.937242389,98.40632629,0.040381145,0.112335041,9.434812546,1.233158946,-1.318082929,0.373007298,0.323730469,-0.081787109,-1.025390625, 
102,2502097938,1.562306643,-0.948931932,98.40861511,0.025353411,0.120987959,9.414858818,1.22913754,-1.410319686,0.328054309,0.3203125,-0.082763672,-1.02734375, 
103,2502106271,1.566748142,-0.953010559,98.38856506,0.038516138,0.128417566,9.425483704,1.252548814,-1.298769712,0.341476172,0.321777344,-0.079345703,-1.026855469, 
104,2502114604,1.577317595,-0.964321434,98.39077759,0.012913793,0.121225208,9.433543205,1.286564589,-1.36631453,0.318807572,0.321777344,-0.081787109,-1.02734375, 
105,2502122937,1.580929995,-0.969305873,98.36728668,0.02014984,0.137237892,9.418462753,1.164179564,-1.40634954,0.38120383,0.319824219,-0.080810547,-1.025878906, 
106,2502131270,1.590921879,-0.980025947,98.36954498,0.034968581,0.135345966,9.423708916,1.217995167,-1.29554224,0.327029705,0.322753906,-0.082763672,-1.02734375, 
107,2502139603,1.595313907,-0.98474884,98.3449173,0.031520911,0.120834909,9.442439079,1.265407085,-1.384116292,0.340528399,0.320800781,-0.081787109,-1.025878906, 
108,2502147936,1.605536461,-0.996652365,98.34814453,0.034680337,0.118345566,9.418656349,1.250089765,-1.435447216,0.446135938,0.32421875,-0.080322266,-1.024414063, 
109,2502156269,1.609851122,-1.001055717,98.32794952,0.027666258,0.120360091,9.426158905,1.266252398,-1.34574616,0.405691057,0.321777344,-0.084228516,-1.025390625, 
110,2502164602,1.620150447,-1.013318062,98.32997894,0.017000508,0.116838351,9.439346313,1.256493449,-1.482833624,0.303900093,0.323242188,-0.081298828,-1.029785156, 
111,2502172935,1.624491572,-1.018182635,98.31280518,0.029537978,0.112690993,9.420882225,1.280263662,-1.405350685,0.352029294,0.322265625,-0.078857422,-1.0234375, 
112,2502181268,1.635595918,-1.029479265,98.31505585,0.027769368,0.134577081,9.416852951,1.353878856,-1.368133187,0.327849388,0.323242188,-0.081298828,-1.025390625, 
113,2502189601,1.639189482,-1.035388827,98.29748535,0.02535519,0.159058511,9.454926491,1.201576471,-1.53734076,0.251057893,0.322265625,-0.080322266,-1.026367188, 
114,2502197934,1.649323106,-1.046241879,98.30079651,0.006229375,0.149193153,9.415336609,1.242456913,-1.312294006,0.456407219,0.323242188,-0.080322266,-1.026855469, 
115,2502206267,1.653098106,-1.050316572,98.28010559,0.00317047,0.158738866,9.43725872,1.226806521,-1.319594026,0.384533674,0.323242188,-0.085449219,-1.025390625, 
116,2502214600,1.663053274,-1.061715961,98.28266907,0.032110296,0.168981522,9.41987133,1.219865203,-1.380427957,0.367269695,0.323242188,-0.080810547,-1.028808594, 
117,2502222933,1.666905999,-1.066195726,98.26989746,0.010188733,0.156238839,9.424405098,1.237923265,-1.380427957,0.370317817,0.318359375,-0.084472656,-1.026855469, 
118,2502231266,1.676593781,-1.078055859,98.27230072,0.015622992,0.164971873,9.414977074,1.188333988,-1.437880635,0.351875514,0.321777344,-0.081787109,-1.025878906, 
119,2502239599,1.68150568,-1.083589196,98.25928497,0.002796137,0.163033187,9.417212486,1.36192143,-1.515466094,0.355487138,0.319824219,-0.079345703,-1.025390625, 
120,2502247932,1.692397714,-1.095573545,98.26174164,0.020158468,0.150820583,9.444604874,1.334335208,-1.452993155,0.361711442,0.318847656,-0.083496094,-1.029785156, 
121,2502256265,1.696445942,-1.099123478,98.23966217,0.019790908,0.137702093,9.424814224,1.257108212,-1.284707546,0.434609503,0.322265625,-0.083740234,-1.026367188, 
122,2502264598,1.706564546,-1.110671639,98.24156952,0.031676069,0.136642054,9.389770508,1.241816401,-1.405939698,0.293500692,0.321289063,-0.081298828,-1.024902344, 
123,2502272931,1.710219026,-1.114961624,98.2226944,0.026034482,0.139787033,9.450363159,1.214537263,-1.382425666,0.334560305,0.319335938,-0.081787109,-1.02734375, 
124,2502281264,1.719881296,-1.126604795,98.22531128,0.036387473,0.133428723,9.424648285,1.190434456,-1.416262507,0.38117826,0.321777344,-0.082763672,-1.026367188, 
125,2502289597,1.723952889,-1.131394267,98.20521545,0.019835854,0.160542712,9.413516998,1.270760536,-1.445949197,0.3886832,0.319824219,-0.080322266,-1.026855469, 
126,2502297930,1.734094501,-1.143101096,98.20843506,0.019836342,0.138491362,9.414086342,1.250397325,-1.422153473,0.454255611,0.321777344,-0.081787109,-1.028808594, 
127,2502306263,1.738716722,-1.147802234,98.18850708,-0.005096436,0.146439016,9.436619759,1.341980934,-1.445385695,0.317232281,0.3203125,-0.083740234,-1.024414063, 
128,2502314596,1.749035597,-1.159487128,98.19113159,-0.002839853,0.135737315,9.447878838,1.272425532,-1.423075557,0.383483499,0.323242188,-0.079345703,-1.026367188, 
129,2502322929,1.753207445,-1.16426909,98.17436218,0.013036751,0.138546005,9.421798706,1.296041846,-1.461804509,0.440987468,0.323730469,-0.082275391,-1.024414063, 
130,2502331262,1.76304841,-1.176156521,98.17670441,0.026332583,0.125877753,9.432798386,1.214511752,-1.44948411,0.351773143,0.3203125,-0.081787109,-1.026367188, 
131,2502339595,1.766796589,-1.180329084,98.15624237,0.026391221,0.116610311,9.433084488,1.252804995,-1.403378248,0.380230486,0.322265625,-0.085449219,-1.02734375, 
132,2502347928,1.776913762,-1.19192791,98.15933228,0.037257224,0.112617753,9.427462578,1.251959801,-1.414085269,0.442678034,0.323242188,-0.080322266,-1.026855469, 
133,2502356261,1.78029573,-1.196420074,98.14226532,0.029446147,0.119247817,9.401927948,1.219199181,-1.449740171,0.333663851,0.322753906,-0.081298828,-1.025878906, 
134,2502364594,1.790760756,-1.208724618,98.14533234,0.039644286,0.094372377,9.44447422,1.294351339,-1.499508739,0.444752783,0.320800781,-0.077880859,-1.028808594, 
135,2502372927,1.795612335,-1.21374476,98.12493896,0.052654471,0.119793117,9.43987751,1.41149807,-1.51707983,0.384315968,0.321777344,-0.082275391,-1.026855469, 
136,2502381260,1.805325985,-1.225911736,98.12730408,0.025719488,0.116551727,9.444473267,1.204675794,-1.488724947,0.362300545,0.319824219,-0.084472656,-1.02734375, 
137,2502389593,1.808503509,-1.229850054,98.1085968,0.020903179,0.147862688,9.453052521,1.225641131,-1.387996912,0.423070312,0.325683594,-0.081298828,-1.029785156, 
138,2502397926,1.818261862,-1.240447402,98.11178589,-0.01766918,0.16975233,9.440858841,1.214947104,-1.299051523,0.454844773,0.319824219,-0.083984375,-1.027832031, 
139,2502406259,1.822023869,-1.244877815,98.09223175,0.003746854,0.158034027,9.42959404,1.306236386,-1.455042362,0.460428715,0.321289063,-0.085449219,-1.024902344, 
140,2502414592,1.831986308,-1.256804824,98.09465027,0.014497868,0.164760724,9.41086483,1.239280581,-1.462572813,0.368063718,0.321777344,-0.079833984,-1.026367188, 
141,2502422925,1.835678935,-1.261119723,98.07765961,-0.001104011,0.180010393,9.432987213,1.297886014,-1.461573839,0.337685257,0.323730469,-0.082275391,-1.024414063, 
142,2502431258,1.846094966,-1.272678614,98.08059692,-0.015737925,0.169083431,9.431954384,1.296144366,-1.419336081,0.430588067,0.322265625,-0.081298828,-1.027832031, 
143,2502439591,1.849945903,-1.276391983,98.05851746,0.007990602,0.156207159,9.367512703,1.318121195,-1.402328014,0.361173511,0.322265625,-0.080322266,-1.02734375, 
144,2502447924,1.860241055,-1.288190365,98.06072235,0.017184755,0.14670442,9.428033829,1.281595349,-1.45163548,0.342705667,0.322753906,-0.083251953,-1.025878906, 
145,2502456257,1.864089727,-1.290885091,98.04154968,0.026201651,0.144693568,9.42056179,1.320042491,-1.29587543,0.351516932,0.325683594,-0.081298828,-1.027832031, 
146,2502464590,1.873918772,-1.301993251,98.04424286,0.041189898,0.12838693,9.435282707,1.228727579,-1.3686198,0.403104007,0.323730469,-0.079345703,-1.025878906, 
147,2502472923,1.87710464,-1.304711819,98.02397156,0.046430361,0.12803407,9.426039696,1.249731302,-1.308503151,0.36588648,0.322753906,-0.081787109,-1.02734375, 
148,2502481256,1.886809945,-1.31566751,98.02561951,0.017437402,0.141107336,9.432144165,1.213768959,-1.355479717,0.280181289,0.319824219,-0.082275391,-1.027832031, 
149,2502489589,1.889535546,-1.319683194,98.00649261,0.016591791,0.112824105,9.412867546,1.204291582,-1.471153498,0.331102401,0.322753906,-0.082763672,-1.025878906, 
150,2502497922,1.899706841,-1.330748081,98.00840759,0.013192006,0.145644382,9.408475876,1.27163136,-1.370002985,0.313915253,0.323730469,-0.081787109,-1.029785156, 
151,2502506255,1.902682424,-1.333578348,97.99093628,0.018972682,0.13302882,9.419735909,1.250141025,-1.337600946,0.399031341,0.323242188,-0.081787109,-1.026367188, 
152,2502514588,1.912955046,-1.345833778,97.9937439,0.006493913,0.131394506,9.43307972,1.287614822,-1.512827992,0.425490916,0.323730469,-0.081787109,-1.026367188, 
153,2502522921,1.915465355,-1.349327445,97.9776001,0.0067353,0.120431311,9.433467865,1.204137921,-1.427404404,0.414143741,0.322265625,-0.081787109,-1.026855469, 
154,2502531254,1.925620079,-1.361514568,97.97986603,0.029922843,0.124876589,9.410681725,1.275115132,-1.508780837,0.361711413,0.322265625,-0.083251953,-1.025878906, 
155,2502539587,1.928792715,-1.364877343,97.96169281,0.018219564,0.127602234,9.438570976,1.296041846,-1.424433112,0.417524815,0.320800781,-0.081298828,-1.024414063, 
156,2502547920,1.938670039,-1.376195192,97.96379852,0.032598704,0.087086499,9.43569088,1.242405534,-1.408910871,0.341143161,0.321289063,-0.082275391,-1.026855469, 
157,2502556253,1.940974951,-1.379402995,97.94337463,0.029915461,0.077025086,9.40866375,1.203343868,-1.418285728,0.363248259,0.322265625,-0.081787109,-1.026367188, 
158,2502564586,1.951092005,-1.391222954,97.94500732,0.02397804,0.099880941,9.443109512,1.272451162,-1.472126961,0.289095014,0.322753906,-0.081787109,-1.024902344, 
159,2502572919,1.953000784,-1.394222021,97.92592621,0.036109243,0.100709587,9.41345787,1.176205635,-1.405978084,0.301223367,0.322753906,-0.080810547,-1.024902344, 
160,2502581252,1.963964105,-1.405333996,97.92841339,0.020048976,0.122973725,9.424408913,1.379428983,-1.385858059,0.389336377,0.323242188,-0.083007813,-1.029785156, 
161,2502589585,1.966737032,-1.408962369,97.90920258,0.027900176,0.143200889,9.430979729,1.301267147,-1.486317039,0.449517012,0.321289063,-0.083007813,-1.028320313, 
162,2502597918,1.978165388,-1.419905543,97.91147614,0.00385005,0.159574434,9.416730881,1.436497569,-1.370105386,0.365182191,0.322265625,-0.081298828,-1.029296875, 
163,2502606251,1.980848193,-1.422875643,97.89347076,-0.005720775,0.182679594,9.447615623,1.300575733,-1.420002103,0.389528513,0.322753906,-0.078857422,-1.027832031, 
164,2502614584,1.990006208,-1.434048414,97.89537811,-0.005339534,0.195474669,9.447306633,1.165102005,-1.400714397,0.322700948,0.323242188,-0.082519531,-1.030761719, 
165,2502622917,1.992266059,-1.436668634,97.87445068,-0.015483338,0.174509093,9.424549103,1.253880858,-1.397640705,0.33586663,0.322265625,-0.081298828,-1.028320313, 
166,2502631250,2.00229764,-1.448150516,97.8766098,0.006590014,0.183304623,9.423594475,1.273731709,-1.440006614,0.357510686,0.322265625,-0.082275391,-1.025390625, 
167,2502639583,2.00462389,-1.450270891,97.85514069,0.004385693,0.166527867,9.413281441,1.263153195,-1.354250073,0.385891199,0.322753906,-0.079833984,-1.028320313, 
168,2502647916,2.014842749,-1.462354422,97.85791016,0.03877138,0.140218243,9.409305573,1.300985336,-1.511111736,0.435224235,0.323730469,-0.081298828,-1.025878906, 
169,2502656249,2.018072605,-1.464429855,97.83717346,0.050693825,0.126384005,9.43507576,1.377930522,-1.364572644,0.390578628,0.322753906,-0.081298828,-1.025390625, 
170,2502664582,2.02803278,-1.475519538,97.83970642,0.055498078,0.105659865,9.417303085,1.269838572,-1.395053625,0.404435962,0.318847656,-0.082763672,-1.025878906, 
171,2502672915,2.030432224,-1.478738546,97.81873322,0.046392441,0.112850435,9.415667534,1.290163517,-1.510317922,0.378040522,0.323242188,-0.083496094,-1.028320313, 
172,2502681248,2.039946079,-1.490196586,97.82115936,0.042325597,0.121139303,9.444984436,1.220223665,-1.44415617,0.392986387,0.322265625,-0.079833984,-1.02734375, 
173,2502689581,2.041552782,-1.491847992,97.80209351,0.045148484,0.109299347,9.419692039,1.211104989,-1.332298756,0.311020821,0.320800781,-0.081298828,-1.02734375, 
174,2502697914,2.051879883,-1.502038598,97.80413818,0.039486196,0.112844482,9.418040276,1.318454146,-1.294543266,0.344549835,0.32421875,-0.081298828,-1.02734375, 
175,2502706247,2.053372383,-1.504321098,97.78577423,0.024089862,0.141024858,9.439791679,1.214895844,-1.415135145,0.361506492,0.323242188,-0.082763672,-1.025878906, 
176,2502714580,2.063057661,-1.514966607,97.78727722,-0.006373964,0.149017721,9.453584671,1.241662741,-1.355812669,0.284612566,0.321777344,-0.077392578,-1.025878906, 
177,2502722913,2.065175056,-1.516461849,97.76888275,-0.006785213,0.1631383,9.44039917,1.304904342,-1.33101809,0.417499214,0.322265625,-0.084472656,-1.030273438, 
178,2502731246,2.075433254,-1.527244925,97.7718811,-0.005960431,0.131334007,9.42318058,1.320349813,-1.368005037,0.465397835,0.324707031,-0.082763672,-1.02734375, 
179,2502739579,2.076492071,-1.527793527,97.75247955,0.00898929,0.120536059,9.428578377,1.18620801,-1.239600897,0.359175622,0.318847656,-0.081787109,-1.026367188, 
180,2502747912,2.085785866,-1.537875295,97.75487518,0.001195178,0.116468698,9.421777725,1.202959776,-1.289958477,0.392499775,0.322265625,-0.082763672,-1.0234375, 
181,2502756245,2.086607218,-1.539364457,97.73483276,0.025666989,0.12748906,9.437082291,1.173080683,-1.366903782,0.391078144,0.322753906,-0.083007813,-1.028808594, 
182,2502764578,2.096736431,-1.550596952,97.73771667,0.028871462,0.116027974,9.431933403,1.310103893,-1.428787589,0.458379537,0.320800781,-0.081298828,-1.025878906, 
183,2502772911,2.098214388,-1.552175403,97.71765137,0.02617486,0.122402273,9.402599335,1.268506527,-1.393209457,0.415962338,0.319335938,-0.081787109,-1.026367188, 
184,2502781244,2.107982635,-1.563500524,97.71959686,0.030847888,0.117635369,9.428357124,1.263665438,-1.446820021,0.348084629,0.32421875,-0.083984375,-1.028320313, 
185,2502789577,2.108728409,-1.565325499,97.70189667,0.018133666,0.133908719,9.421059608,1.194916844,-1.438213587,0.352541476,0.319824219,-0.083740234,-1.025390625, 
186,2502797910,2.118962526,-1.576351404,97.70428467,0.023939369,0.168475077,9.419752121,1.325523853,-1.413470268,0.400414497,0.322753906,-0.081787109,-1.0234375, 
187,2502806243,2.120183706,-1.578307509,97.68636322,-0.00069233,0.162183657,9.444872856,1.270863175,-1.462829113,0.469572991,0.321289063,-0.082763672,-1.025390625, 
188,2502814576,2.129749775,-1.589367032,97.68739319,0.017628497,0.161975667,9.391107559,1.243660808,-1.425688386,0.239864513,0.321777344,-0.083496094,-1.02734375, 
189,2502822909,2.131004333,-1.590303183,97.66739655,-0.0067265,0.174145773,9.419247627,1.277061701,-1.366493821,0.2578713,0.323242188,-0.082763672,-1.026855469, 
190,2502831242,2.140272856,-1.601492047,97.66893005,0.022066856,0.160469338,9.407687187,1.21364069,-1.442465544,0.30308041,0.321289063,-0.084228516,-1.023925781, 
191,2502839575,2.141287804,-1.602864504,97.65061951,0.018828154,0.158851013,9.417144775,1.259951353,-1.429453611,0.403616279,0.318847656,-0.084960938,-1.025390625, 
192,2502847908,2.151080847,-1.612948179,97.65336609,0.024697447,0.137303457,9.430605888,1.282773733,-1.309143543,0.445316255,0.321777344,-0.086425781,-1.028808594, 
193,2502856241,2.152307749,-1.614642739,97.63591003,0.051324178,0.117979988,9.415657043,1.295401454,-1.484088659,0.385839969,0.321777344,-0.083251953,-1.024414063, 
194,2502864574,2.161672831,-1.625493407,97.63821411,0.038762011,0.101806186,9.420516968,1.233799219,-1.404838204,0.39877522,0.318847656,-0.080322266,-1.025390625, 
195,2502872907,2.162970781,-1.626156807,97.62091827,0.043677989,0.095549382,9.453671455,1.321092486,-1.372308135,0.409558803,0.319824219,-0.083251953,-1.0234375, 
196,2502881240,2.172504663,-1.636891127,97.62284088,0.045726787,0.104665615,9.453375816,1.254264951,-1.397538304,0.355640829,0.323242188,-0.082275391,-1.024902344, 
197,2502889573,2.173248053,-1.637458801,97.60338593,0.038775083,0.108760729,9.415108681,1.27429533,-1.374485493,0.366270781,0.321777344,-0.081787109,-1.024902344, 
198,2502897906,2.182188272,-1.64697504,97.60632324,0.014076761,0.12087559,9.388300896,1.190229416,-1.249103785,0.472288042,0.316894531,-0.084960938,-1.029785156, 
199,2502906239,2.182516336,-1.647545099,97.58737183,0.01923118,0.141938403,9.42226696,1.242559433,-1.389546633,0.342603207,0.3203125,-0.0859375,-1.026367188, 
200,2502914572,2.191506147,-1.657567382,97.58960724,-0.000234102,0.158921346,9.431743622,1.198067427,-1.316238761,0.391398311,0.321289063,-0.0859375,-1.027832031, 
201,2502922905,2.192142725,-1.658114195,97.57202911,-0.015047498,0.15338318,9.432678223,1.292891383,-1.403352857,0.322163045,0.321777344,-0.081787109,-1.026855469, 
202,2502931238,2.200864553,-1.668274164,97.574646,-0.017544972,0.145385563,9.414862633,1.17112112,-1.336473823,0.44152537,0.321777344,-0.079345703,-1.026367188, 
203,2502939571,2.200397968,-1.668174267,97.55549622,0.008882547,0.140165418,9.434229851,1.172427416,-1.344798565,0.348187089,0.321289063,-0.081298828,-1.024902344, 
204,2502947904,2.210163355,-1.678683519,97.55737305,0.00678539,0.134409979,9.432798386,1.296964169,-1.384731293,0.354513854,0.319824219,-0.081787109,-1.02734375, 
205,2502956237,2.209819317,-1.679785848,97.54055786,0.013654993,0.130011708,9.419968605,1.2013973,-1.508678436,0.365451157,0.321289063,-0.084472656,-1.025878906, 
206,2502964570,2.219827414,-1.690163016,97.54232788,0.035594486,0.11692708,9.419635773,1.328008533,-1.373640299,0.345420778,0.321777344,-0.083496094,-1.02734375, 
207,2502972903,2.220159292,-1.68950212,97.52600098,0.035550658,0.129585788,9.413781166,1.29942286,-1.315547109,0.374441653,0.319824219,-0.084472656,-1.026855469, 
208,2502981236,2.229645491,-1.699789762,97.52749634,0.051109727,0.119270369,9.437458038,1.268301606,-1.367364645,0.312147856,0.318847656,-0.083740234,-1.022460938, 
209,2502989569,2.229635715,-1.699912548,97.50914764,0.048580315,0.147521332,9.41274929,1.273450017,-1.424279451,0.339350164,0.321289063,-0.079833984,-1.025878906, 
210,2502997902,2.238622904,-1.710407734,97.51076508,0.038127065,0.15154928,9.420518875,1.212744236,-1.39623189,0.330308348,0.323242188,-0.083984375,-1.026855469, 
211,2503006235,2.238885641,-1.710455418,97.49484253,0.014693538,0.159279481,9.428682327,1.321899414,-1.425483346,0.377707481,0.322265625,-0.084960938,-1.027832031, 
212,2503014568,2.247896433,-1.72146821,97.49658203,0.015778886,0.167443827,9.404597282,1.220992208,-1.461522579,0.349442184,0.32421875,-0.082763672,-1.028320313, 
213,2503022901,2.247575283,-1.7208848,97.4776535,0.017437955,0.152423173,9.443753242,1.263242841,-1.366071343,0.379449308,0.323730469,-0.084472656,-1.028320313, 
214,2503031234,2.256534338,-1.730783343,97.48010254,0.030580454,0.14357765,9.410619736,1.220300555,-1.330377698,0.430536836,0.3203125,-0.082519531,-1.029785156, 
215,2503039567,2.25555563,-1.730082512,97.46083069,0.010281707,0.132617727,9.410244942,1.197247863,-1.369285822,0.362966537,0.321777344,-0.080810547,-1.02734375, 
216,2503047900,2.264340639,-1.740897894,97.4621582,0.017028173,0.113637276,9.401649475,1.19878459,-1.447562933,0.305436939,0.325195313,-0.080810547,-1.02734375, 
217,2503056233,2.263680935,-1.741320133,97.4445343,0.024274856,0.125681758,9.435832977,1.248386502,-1.522574186,0.341898769,0.319824219,-0.081298828,-1.024414063, 
218,2503064566,2.272004366,-1.751429677,97.44661713,0.029479539,0.105151936,9.427369118,1.150437713,-1.365136266,0.393460244,0.321777344,-0.081298828,-1.024902344, 
219,2503072899,2.270955086,-1.750755668,97.42739105,0.017930841,0.091893055,9.419391632,1.218072176,-1.410524726,0.27802974,0.323242188,-0.082763672,-1.02734375, 
220,2503081232,2.280505657,-1.760389447,97.42966461,0.012653598,0.113850087,9.418873787,1.30213809,-1.311500072,0.415117115,0.32421875,-0.082275391,-1.027832031, 
221,2503089565,2.278928995,-1.759812117,97.41248322,-0.018739264,0.119201913,9.411061287,1.180163145,-1.432040691,0.418728739,0.325683594,-0.084472656,-1.026855469, 
222,2503097898,2.28787756,-1.769407392,97.41543579,0.004447006,0.150685117,9.427196503,1.23687315,-1.307760477,0.498542726,0.320800781,-0.083007813,-1.029785156, 
223,2503106231,2.286490679,-1.768011928,97.395401,-0.011278263,0.135292083,9.408503532,1.221222758,-1.357247233,0.40154162,0.323242188,-0.082763672,-1.026367188, 
224,2503114564,2.295788765,-1.778256059,97.39738464,0.001094903,0.150756061,9.434944153,1.278086305,-1.39395225,0.387837917,0.321289063,-0.079833984,-1.023925781, 
225,2503122897,2.29445982,-1.777243018,97.37870026,-0.001957041,0.138646945,9.41002655,1.242226481,-1.422870755,0.405691087,0.321777344,-0.082275391,-1.025390625, 
226,2503131230,2.303008795,-1.786447287,97.38054657,0.032420821,0.130335137,9.4382658,1.191484451,-1.274077535,0.369293243,0.323242188,-0.079833984,-1.025878906, 
227,2503139563,2.301518202,-1.784571409,97.36316681,0.035211779,0.145541951,9.457790375,1.237410903,-1.341238141,0.387709886,0.323242188,-0.083740234,-1.024902344, 
228,2503147896,2.310617685,-1.794338942,97.36473846,0.038538955,0.139670983,9.452498436,1.260924816,-1.347231984,0.342987388,0.321777344,-0.081298828,-1.028808594, 
229,2503156229,2.309258699,-1.792822003,97.34674072,0.031585373,0.13831751,9.421830177,1.264459491,-1.40399313,0.29816249,0.326660156,-0.082275391,-1.026855469, 
230,2503164562,2.318489313,-1.802185774,97.34920502,0.037080422,0.136416331,9.421764374,1.285104513,-1.299230814,0.449619472,0.319824219,-0.081787109,-1.026855469, 
231,2503172895,2.317305088,-1.8005898,97.32902527,0.029787052,0.158196583,9.417656898,1.302893639,-1.406887412,0.328502536,0.325683594,-0.083496094,-1.029785156, 
232,2503181228,2.326472044,-1.810152769,97.33128357,0.051225059,0.144556612,9.446695328,1.279546261,-1.329148293,0.42907685,0.324707031,-0.082763672,-1.026367188, 
233,2503189561,2.323854446,-1.808257341,97.31330109,0.030567624,0.162215024,9.428729057,1.147274375,-1.384705544,0.400619417,0.317382813,-0.082763672,-1.026367188, 
234,2503197894,2.331721067,-1.818266153,97.31574249,0.017124124,0.147033051,9.419140816,1.128883481,-1.386729121,0.453640938,0.321777344,-0.085449219,-1.025390625, 
235,2503206227,2.329697847,-1.816729188,97.29836273,-0.002651257,0.156430393,9.425338745,1.230059505,-1.443105936,0.37859118,0.324707031,-0.081787109,-1.026367188, 
236,2503214560,2.338472605,-1.827044249,97.30053711,0.001302838,0.163664892,9.42681694,1.241099477,-1.429095149,0.425567746,0.3203125,-0.081298828,-1.026367188, 
237,2503222893,2.336868048,-1.824907303,97.28209686,0.006777811,0.185182109,9.41841507,1.293403745,-1.391903162,0.339836866,0.321777344,-0.084960938,-1.026855469, 
238,2503231226,2.345926762,-1.834452033,97.28457642,0.009175812,0.162067369,9.435956955,1.280289054,-1.340008616,0.460403055,0.321289063,-0.082275391,-1.027832031, 
239,2503239559,0.798043609,-0.134516582,97.01865387,0.010686321,0.157966077,9.428854942,1.232377648,-1.427724481,0.335597694,0.323242188,-0.083984375,-1.026855469, 
240,2503247892,0.806570768,-0.144724593,97.02070618,0.017026423,0.127812833,9.415316582,1.212180853,-1.434730291,0.38384214,0.324707031,-0.083984375,-1.02734375, 
241,2503256225,0.806941926,-0.14492467,97.03266907,0.036749709,0.114341594,9.409557343,1.266073227,-1.409551382,0.500002742,0.323242188,-0.083496094,-1.030761719, 
242,2503264558,0.806396663,-0.14554593,97.03237152,0.023750838,0.103189334,9.405356407,1.186131239,-1.478248835,0.337838948,0.320800781,-0.080810547,-1.027832031, 
243,2503272891,0.806899846,-0.146217003,97.04888916,0.016848808,0.09257374,9.415494919,1.281620979,-1.468822479,0.34836638,0.326171875,-0.082275391,-1.028320313, 
244,2503281224,0.806707799,-0.145520985,97.04881287,0.023134021,0.102141574,9.424096107,1.228855729,-1.320490718,0.362787247,0.325683594,-0.081787109,-1.028808594, 
245,2503289557,0.807191491,-0.145908058,97.0643692,0.016103525,0.118632302,9.427522659,1.283055425,-1.434960485,0.396802902,0.321777344,-0.080810547,-1.02734375, 
246,2503297890,0.806393147,-0.145860851,97.0639267,0.044560947,0.128109396,9.40194416,1.155061126,-1.398127317,0.318833143,0.322265625,-0.083740234,-1.026367188, 
247,2503306223,0.807030559,-0.145649359,97.07840729,0.033144142,0.134845167,9.429890633,1.303828597,-1.363932371,0.353642911,0.320800781,-0.084472656,-1.028320313, 
248,2503314556,0.806745946,-0.145113125,97.07847595,0.018693592,0.126070529,9.434849739,1.217713714,-1.339727163,0.379897535,0.3203125,-0.079833984,-1.026855469, 
249,2503322889,0.80703938,-0.145384759,97.09429932,0.031333156,0.132805839,9.430356979,1.262436032,-1.421205878,0.418344498,0.320800781,-0.078857422,-1.02734375, 
250,2503331222,0.806808352,-0.146563843,97.09457397,0.013073143,0.140040159,9.427463531,1.225218534,-1.544230938,0.407355994,0.319824219,-0.081787109,-1.024902344, 
251,2503339555,0.807270944,-0.146439001,97.10699463,0.013238817,0.14003481,9.425779343,1.283849478,-1.375279427,0.282204837,0.319335938,-0.083251953,-1.026367188, 
252,2503347888,0.806827903,-0.146276221,97.10668945,0.024043713,0.139540672,9.419884682,1.198221087,-1.384961605,0.335508049,0.323730469,-0.082275391,-1.025878906, 
253,2503356221,0.807080507,-0.146307558,97.1210022,0.011612988,0.12380667,9.397542953,1.258183956,-1.394361973,0.371905863,0.321289063,-0.081787109,-1.026367188, 
254,2503364554,0.807186127,-0.146650121,97.12059784,0.025579982,0.135316089,9.414778709,1.264766932,-1.444745183,0.323725522,0.322265625,-0.085449219,-1.025878906, 
255,2503372887,0.80769974,-0.146429479,97.13504791,0.014976309,0.141139433,9.418898582,1.291098237,-1.365161896,0.36870411,0.321777344,-0.082275391,-1.025390625, 
256,2503381220,0.808039963,-0.147054508,97.13514709,0.029376335,0.136941284,9.414800644,1.292379141,-1.477992654,0.384482503,0.322265625,-0.081298828,-1.024902344, 
257,2503389553,0.807792604,-0.147972018,97.14762878,-0.009871183,0.147151917,9.427600861,1.200526357,-1.501660109,0.32841289,0.320800781,-0.082763672,-1.023925781, 
258,2503397886,0.806722581,-0.148304656,97.14846039,0.008530395,0.142978594,9.425145149,1.122787118,-1.441876411,0.473415077,0.321289063,-0.082275391,-1.025878906, 
259,2503406219,0.806895256,-0.14796859,97.16293335,0.006821102,0.162840694,9.420769691,1.251268268,-1.353968501,0.346496582,0.324707031,-0.081787109,-1.025878906, 
260,2503414552,0.806299746,-0.147714198,97.16255951,0.007533031,0.157845616,9.433988571,1.180111766,-1.371975303,0.327516407,0.325195313,-0.080322266,-1.026855469, 
261,2503422885,0.806228578,-0.147312835,97.17552948,0.026600689,0.147429198,9.417071342,1.220492721,-1.345451713,0.419305056,0.322265625,-0.080810547,-1.028320313, 
262,2503431218,0.805465519,-0.146961927,97.17469788,0.027540876,0.128166005,9.438289642,1.160644889,-1.363291979,0.273700893,0.320800781,-0.081787109,-1.027832031, 
263,2503439551,0.805124283,-0.1470415,97.18701935,0.031186214,0.117189169,9.40755558,1.187744856,-1.405120134,0.314991027,0.322265625,-0.081787109,-1.028808594, 
264,2503447884,0.805397213,-0.146893963,97.18701935,0.046983581,0.134143397,9.424380302,1.284592271,-1.384782434,0.372571886,0.322753906,-0.083496094,-1.028808594, 
265,2503456217,0.80539465,-0.147061899,97.20094299,0.052229643,0.111798361,9.458389282,1.230187654,-1.414136291,0.430536836,0.323730469,-0.080322266,-1.02734375, 
266,2503464550,0.806019485,-0.146175697,97.20105743,0.028410306,0.126778722,9.420571327,1.326522708,-1.297924399,0.382407695,0.322753906,-0.080810547,-1.026367188, 
267,2503472883,0.806239367,-0.146034569,97.21269226,0.035740864,0.119372845,9.422525406,1.257364273,-1.377328634,0.335405588,0.321289063,-0.084228516,-1.025390625, 
268,2503481216,0.806248605,-0.146818727,97.2117691,0.0192532,0.128414735,9.419487953,1.252881885,-1.498842716,0.26301977,0.321777344,-0.078369141,-1.027832031, 
269,2503489549,0.807003498,-0.1478917,97.22576904,0.007647438,0.125830188,9.440619469,1.321681619,-1.522586823,0.384789824,0.319824219,-0.079345703,-1.025878906, 
270,2503497882,0.807083786,-0.14785701,97.22505188,-0.018743079,0.139855444,9.417731285,1.260860682,-1.399894834,0.286623329,0.32421875,-0.081787109,-1.02734375, 
271,2503506215,0.807041407,-0.14739731,97.23562622,0.002065102,0.138228983,9.427833557,1.22885561,-1.341699243,0.241811171,0.322265625,-0.083007813,-1.028808594, 
272,2503514548,0.806964099,-0.148157224,97.23609924,0.00152829,0.157415062,9.414216042,1.241163373,-1.493002415,0.428961575,0.322265625,-0.083496094,-1.029785156, 
273,2503522881,0.807584047,-0.147926912,97.24887848,-0.016559731,0.150532916,9.417593002,1.308119059,-1.369810939,0.325582564,0.326660156,-0.081787109,-1.026855469, 
274,2503531214,0.807229757,-0.148230463,97.24867249,0.00493493,0.16946514,9.400901794,1.209773064,-1.440672636,0.348161519,0.323242188,-0.082275391,-1.027832031, 
275,2503539547,0.807405055,-0.148072347,97.26005554,0.015191446,0.153893828,9.423303604,1.253829598,-1.379249692,0.324058503,0.321777344,-0.081787109,-1.02734375, 
276,2503547880,0.80781585,-0.148039937,97.26039124,0.019309597,0.141308933,9.467924118,1.300549865,-1.398690939,0.413452178,0.322753906,-0.081787109,-1.028320313, 
277,2503556213,0.80757159,-0.148823455,97.27192688,0.037703194,0.153675273,9.429688454,1.202191472,-1.493668675,0.326799273,0.319824219,-0.082275391,-1.024414063, 
278,2503564546,0.80759728,-0.148862764,97.27191162,0.04704316,0.15710026,9.429141998,1.254956603,-1.407706976,0.369037062,0.318847656,-0.082275391,-1.025878906, 
279,2503572879,0.80710572,-0.14877966,97.28587341,0.055293683,0.155955315,9.410522461,1.173208952,-1.38890636,0.374224007,0.322753906,-0.082763672,-1.024414063, 
280,2503581212,0.807076693,-0.148642763,97.28536224,0.043841518,0.155382827,9.435251236,1.248502016,-1.387804866,0.311277002,0.323242188,-0.085449219,-1.027832031, 
281,2503589545,0.806878984,-0.148956522,97.29978943,0.018580342,0.148810491,9.411509514,1.207544565,-1.435088873,0.438374817,0.318847656,-0.079345703,-1.022460938, 
282,2503597878,0.806805193,-0.149309993,97.29894257,0.012915093,0.151969984,9.437560081,1.241944432,-1.446282148,0.270294189,0.323730469,-0.081298828,-1.027832031, 
283,2503606211,0.807186186,-0.148606122,97.31060791,0.016130887,0.149828836,9.397258759,1.277983785,-1.31334424,0.346240371,0.321289063,-0.083740234,-1.024902344, 
284,2503614544,0.806898952,-0.148364425,97.31015015,0.009982187,0.132792264,9.422556877,1.216022968,-1.37597096,0.318474561,0.324707031,-0.079833984,-1.02734375, 
285,2503622877,0.806490481,-0.148485899,97.32344055,0.026901327,0.12365064,9.431381226,1.182801247,-1.412087202,0.369651824,0.321777344,-0.081787109,-1.026367188, 
286,2503631210,0.806614637,-0.149273857,97.32356262,0.030567173,0.123518527,9.400096893,1.266380548,-1.497536182,0.389118642,0.322753906,-0.085449219,-1.024902344, 
287,2503639543,0.806475759,-0.14952004,97.33728027,0.033859808,0.095638245,9.429095268,1.214281201,-1.428557158,0.439681143,0.324707031,-0.081787109,-1.024902344, 
288,2503647876,0.80623877,-0.149408728,97.33815002,0.002085173,0.100629099,9.447462082,1.22388649,-1.388317108,0.476078957,0.322753906,-0.080810547,-1.026855469, 
289,2503656209,0.806524456,-0.14909932,97.35009003,0.024693199,0.077441908,9.432811737,1.267174602,-1.360192657,0.434686363,0.322265625,-0.082763672,-1.025878906, 
290,2503664542,0.806397855,-0.149231166,97.35118103,0.016555786,0.087514475,9.416423798,1.235937953,-1.417286754,0.501116872,0.323730469,-0.083251953,-1.0234375, 
291,2503672875,0.805787206,-0.149556071,97.36301422,0.021485096,0.120776556,9.423736572,1.162310004,-1.440006733,0.241426989,0.323730469,-0.082275391,-1.026855469, 
292,2503681208,0.805189133,-0.149315,97.36300659,-0.000609506,0.118982784,9.421679497,1.17986846,-1.374382973,0.370407432,0.321289063,-0.077392578,-1.027832031, 
293,2503689541,0.806475759,-0.149407282,97.37478638,0.002982507,0.149511859,9.414493561,1.390468717,-1.411190629,0.345356733,0.321289063,-0.081787109,-1.024902344, 
294,2503697874,0.806854248,-0.150633082,97.37480927,-0.019986635,0.163089409,9.422701836,1.296835899,-1.550685763,0.378206998,0.322753906,-0.081787109,-1.026855469, 
295,2503706207,0.807740986,-0.151440307,97.38658905,0.022271192,0.160565987,9.420442581,1.343940496,-1.497741103,0.347444296,0.32421875,-0.083496094,-1.027832031, 
296,2503714540,0.807870567,-0.151041299,97.38699341,0.013317862,0.158819526,9.450690269,1.266892791,-1.354070783,0.419727653,0.320800781,-0.081298828,-1.028808594, 
297,2503722873,0.807830811,-0.151274115,97.39910889,0.027736751,0.147382349,9.448746681,1.231557965,-1.429389596,0.355602384,0.323730469,-0.081787109,-1.026367188, 
298,2503731206,0.807997465,-0.150034785,97.39940643,0.027134322,0.145239308,9.408658028,1.272207856,-1.254444361,0.405370891,0.321289063,-0.083251953,-1.026855469, 
299,2503739539,0.806824684,-0.150151238,97.41121674,0.033650577,0.158368945,9.420581818,1.095059752,-1.415673137,0.395534992,0.321289063,-0.082763672,-1.02734375, 
300,2503747872,0.806991994,-0.150335237,97.41127014,0.042918444,0.147471935,9.396871567,1.27163136,-1.425790787,0.378872931,0.319824219,-0.081298828,-1.023925781, 
301,2503756205,0.806704104,-0.150079951,97.42223358,0.041342858,0.127708212,9.403754234,1.200910568,-1.371488571,0.30574429,0.3203125,-0.081787109,-1.027832031, 
302,2503764538,0.806037247,-0.150435165,97.42216492,0.024371643,0.136290655,9.393512726,1.170967579,-1.446717501,0.364528984,0.322265625,-0.082275391,-1.028320313, 
303,2503772871,0.806540251,-0.150488555,97.43397522,0.036426548,0.117050871,9.416030884,1.297630072,-1.40673399,0.364426553,0.320800781,-0.083251953,-1.026367188, 
304,2503781204,0.807557106,-0.150195479,97.43341064,0.019965291,0.153442323,9.406064034,1.373140693,-1.369721174,0.303567082,0.321289063,-0.084228516,-1.025390625, 
305,2503789537,0.807106256,-0.150263965,97.44532776,0.018529449,0.135602027,9.414687157,1.181571722,-1.408706069,0.377950817,0.32421875,-0.080322266,-1.024902344, 
306,2503797870,0.806853473,-0.150396392,97.44540405,0.00202595,0.144501731,9.441160202,1.220953584,-1.418862104,0.380294532,0.325195313,-0.080810547,-1.026855469, 
307,2503806203,0.806608737,-0.151207834,97.45573425,-0.007899452,0.123825997,9.433941841,1.20740366,-1.499047518,0.44041115,0.321777344,-0.081298828,-1.027832031, 
308,2503814536,0.80596441,-0.150647447,97.45632172,0.010162281,0.130323946,9.423457146,1.174374342,-1.334681034,0.44173032,0.320800781,-0.082763672,-1.02734375, 
309,2503822869,0.805892646,-0.150489792,97.46754456,0.01133533,0.118565567,9.446277618,1.228471518,-1.385140896,0.298674792,0.323242188,-0.083740234,-1.026367188, 
310,2503831202,0.806216717,-0.150676936,97.46751404,-0.001312245,0.100926146,9.426218033,1.289458871,-1.424714923,0.368422329,0.321289063,-0.084472656,-1.025878906, 
311,2503839535,0.805974245,-0.150306553,97.47940063,-0.001025193,0.106449611,9.42610836,1.208197832,-1.35964191,0.324890941,0.323242188,-0.080810547,-1.025390625, 
312,2503847868,0.806274831,-0.150245711,97.47882843,0.042507723,0.12491706,9.44263649,1.287589073,-1.397025943,0.303720742,0.320800781,-0.081787109,-1.025390625, 
313,2503856201,0.806293726,-0.149758697,97.4894104,0.02571691,0.126635343,9.436472893,1.240996838,-1.345464587,0.371009409,0.322265625,-0.086425781,-1.028320313, 
314,2503864534,0.805520117,-0.149857357,97.48886108,0.024589837,0.123605378,9.418541908,1.157968402,-1.415532231,0.306807309,0.321289063,-0.083251953,-1.024902344, 
315,2503872867,0.805324674,-0.150133282,97.50225067,0.045169979,0.150616571,9.388252258,1.216125488,-1.436907291,0.436786741,0.325683594,-0.084472656,-1.026367188, 
316,2503881200,0.805575609,-0.150787219,97.50185394,0.010832401,0.144025773,9.426003456,1.282722473,-1.48173213,0.325979561,0.320800781,-0.081298828,-1.026367188, 
317,2503889533,0.805704117,-0.150301456,97.51403809,0.033752583,0.14454104,9.408129692,1.253522277,-1.34620738,0.35090223,0.320800781,-0.083496094,-1.028808594, 
318,2503897866,0.806169391,-0.150014028,97.51415253,0.03216999,0.157369345,9.409516335,1.308643937,-1.367006183,0.385814399,0.3203125,-0.080810547,-1.027832031, 
319,2503906199,0.805909097,-0.150557876,97.52578735,0.015706608,0.166290954,9.434183121,1.20765996,-1.46951437,0.385545492,0.322265625,-0.080810547,-1.028320313, 
320,2503914532,0.806507945,-0.150615275,97.52531433,0.011933792,0.153530359,9.435371399,1.322386146,-1.410229921,0.316054046,0.3203125,-0.079833984,-1.02734375, 
321,2503922865,0.807922542,-0.151718333,97.53578186,0.029642573,0.123917542,9.406690598,1.409602642,-1.536341906,0.405473322,0.319824219,-0.083984375,-1.030273438, 
322,2503931198,0.807959855,-0.151901022,97.53588104,0.023505379,0.128386095,9.44568634,1.255648136,-1.424023271,0.384303153,0.32421875,-0.082275391,-1.026367188, 
323,2503939531,0.807986498,-0.151640549,97.54758453,0.037425254,0.138000816,9.457250595,1.241188884,-1.373191953,0.38001281,0.322265625,-0.083251953,-1.026367188, 
324,2503947864,0.807726979,-0.151904762,97.54768372,0.020903347,0.129210711,9.431511879,1.221145988,-1.435191393,0.385788828,0.32421875,-0.080322266,-1.025390625, 
325,2503956197,0.808164358,-0.150991604,97.55832672,0.034176316,0.132990122,9.436113358,1.291456938,-1.294364095,0.341501772,0.319824219,-0.084228516,-1.023925781, 
326,2503964530,0.809043109,-0.15077351,97.55857849,0.014136378,0.122798115,9.416205406,1.356747627,-1.376893282,0.400849998,0.31640625,-0.081298828,-1.028320313, 
327,2503972863,0.808495581,-0.15099448,97.56938171,0.021535162,0.14399676,9.434884071,1.174015641,-1.430811167,0.300339699,0.326171875,-0.080810547,-1.02734375, 
328,2503981196,0.809153259,-0.150177941,97.56943512,0.010221528,0.156524166,9.427744865,1.330262423,-1.305224538,0.374979585,0.323242188,-0.080322266,-1.026855469, 
329,2503989529,0.810455561,-0.150209621,97.57891846,0.019234257,0.134822279,9.406560898,1.396065235,-1.406656861,0.405332446,0.32421875,-0.084228516,-1.025878906, 
330,2503997862,0.81117475,-0.150696576,97.57866669,0.031565018,0.141150266,9.422094345,1.337562442,-1.462265372,0.340092987,0.3203125,-0.080322266,-1.025878906, 
331,2504006195,0.811348915,-0.151838824,97.58940887,0.003437311,0.142459154,9.437049866,1.260617137,-1.542617083,0.318884403,0.319824219,-0.083251953,-1.026367188, 
332,2504014528,0.810945034,-0.151376694,97.58959198,0.017194387,0.130418822,9.422347069,1.202549934,-1.34625864,0.392064273,0.319824219,-0.082275391,-1.028320313, 
333,2504022861,0.810216904,-0.150816485,97.60059357,0.017996006,0.138138801,9.431222916,1.15241003,-1.337024689,0.411543906,0.326171875,-0.082275391,-1.028808594, 
334,2504031194,0.809914529,-0.151195586,97.60041809,0.019247036,0.135408208,9.451717377,1.214998484,-1.449381471,0.352080494,0.321289063,-0.086425781,-1.026367188, 
335,2504039527,0.809337378,-0.151094586,97.61012268,0.025780935,0.121718638,9.441288948,1.170941949,-1.391980052,0.39124462,0.320800781,-0.085449219,-1.028808594, 
336,2504047860,0.809533,-0.151044279,97.60951233,0.015725715,0.120972641,9.429366112,1.274320841,-1.399075031,0.297650188,0.319824219,-0.082763672,-1.025878906, 
337,2504056193,0.809793055,-0.149856478,97.62015533,0.045333136,0.124354281,9.430968285,1.271324039,-1.262243867,0.316476673,0.321777344,-0.082763672,-1.027832031, 
338,2504064526,0.809674978,-0.149709821,97.6199646,0.013699137,0.133378267,9.423642159,1.236872911,-1.385653138,0.349390954,0.321289063,-0.082275391,-1.028320313, 
339,2504072859,0.810213804,-0.149150982,97.6313324,0.019057121,0.143934652,9.419147491,1.30571115,-1.336294651,0.427527189,0.323730469,-0.082275391,-1.026367188, 
340,2504081192,0.809589446,-0.149421662,97.63159943,0.018808419,0.152502716,9.411487579,1.176026464,-1.435921192,0.405652642,0.3203125,-0.081298828,-1.02734375, 
341,2504089525,0.810578704,-0.149882331,97.64188385,0.024768392,0.154499918,9.418503761,1.360371947,-1.459742308,0.380243272,0.322753906,-0.082275391,-1.026367188, 
342,2504097858,0.810010314,-0.150177836,97.6415863,-0.001976946,0.150010914,9.426433563,1.183390498,-1.439801812,0.336583853,0.322753906,-0.0859375,-1.026855469, 
343,2504106191,0.810211122,-0.150175408,97.65197754,0.004176582,0.155899838,9.407446861,1.263870478,-1.404838443,0.375338227,0.322753906,-0.081787109,-1.025878906, 
344,2504114524,0.810113847,-0.150304362,97.65270233,0.001334737,0.14571245,9.421377182,1.240484715,-1.41680038,0.458610117,0.318359375,-0.082275391,-1.027832031, 
345,2504122857,0.810022652,-0.149947941,97.66376495,0.0307335,0.143312484,9.421471596,1.229444861,-1.361345291,0.549105167,0.324707031,-0.081787109,-1.023925781, 
346,2504131190,0.810287297,-0.150478542,97.66419983,0.019060042,0.131976873,9.415882111,1.283157945,-1.465851545,0.425798267,0.323242188,-0.080810547,-1.028320313, 
347,2504139523,0.809977472,-0.150510058,97.67362213,0.031794906,0.113445885,9.416360855,1.20263958,-1.408257842,0.407163858,0.321777344,-0.083251953,-1.026367188, 
348,2504147856,0.810552299,-0.1511603,97.67376709,0.026383193,0.111487351,9.444673538,1.321182251,-1.482167721,0.390540242,0.326660156,-0.085449219,-1.026855469, 
349,2504156189,0.810728729,-0.151169777,97.68315125,0.026892243,0.102975845,9.425189972,1.262000561,-1.408091307,0.276979506,0.319824219,-0.079833984,-1.02734375, 
350,2504164522,0.810468495,-0.151010811,97.68266296,0.004581096,0.118981831,9.440755844,1.219199181,-1.385166526,0.313966483,0.316894531,-0.079345703,-1.026855469, 
351,2504172855,0.810866535,-0.151470974,97.6905899,0.022949239,0.141919941,9.434477806,1.290099263,-1.460472345,0.341706693,0.321289063,-0.084472656,-1.029296875, 
352,2504181188,0.811336756,-0.151660159,97.69089508,0.027389785,0.14242655,9.443547249,1.307606697,-1.425688267,0.407240689,0.321777344,-0.080810547,-1.028320313, 
353,2504189521,0.811380744,-0.151132628,97.7012558,0.013994305,0.134893626,9.436053276,1.247169852,-1.34351778,0.39362675,0.323242188,-0.080322266,-1.027832031, 
354,2504197854,0.811565161,-0.150793135,97.70137024,-0.005793206,0.155337527,9.436403275,1.272989273,-1.362011433,0.386762202,0.321777344,-0.082275391,-1.0234375, 
355,2504206187,0.811218739,-0.150880769,97.70943451,0.016121307,0.14404887,9.41182518,1.200603247,-1.415212035,0.396034449,0.323242188,-0.082275391,-1.027832031, 
356,2504214520,0.810227811,-0.151254907,97.70970917,0.021474596,0.15068838,9.405708313,1.131726623,-1.448715687,0.40622896,0.321777344,-0.080322266,-1.02734375, 
357,2504222853,0.810701907,-0.150640428,97.71909332,0.016736142,0.133385643,9.422110558,1.298974514,-1.331876159,0.414310247,0.321289063,-0.082275391,-1.025878906, 
358,2504231186,0.810320318,-0.150005057,97.71921539,0.044847846,0.138731644,9.42726326,1.20605886,-1.326970935,0.386377901,0.322753906,-0.079345703,-1.028320313, 
359,2504239519,0.810715318,-0.150016516,97.72828674,0.034734208,0.123416007,9.445778847,1.289254189,-1.407835245,0.348238349,0.32421875,-0.080322266,-1.026367188, 
360,2504247852,0.81091702,-0.149543449,97.7287674,0.034137145,0.131855994,9.434462547,1.276446939,-1.34592545,0.430383176,0.321777344,-0.082519531,-1.030761719, 
361,2504256185,0.811038852,-0.149209529,97.73595428,0.042134248,0.141380534,9.415060043,1.255750656,-1.367390156,0.320241958,0.32421875,-0.079345703,-1.025390625, 
362,2504264518,0.810804427,-0.149633259,97.73556519,0.025978887,0.14719446,9.417952538,1.222336888,-1.453889608,0.325992376,0.319824219,-0.081298828,-1.028320313, 
363,2504272851,0.810294032,-0.149303168,97.74219513,0.018121891,0.166115612,9.452498436,1.181456447,-1.36735177,0.350915015,0.320800781,-0.081787109,-1.026367188, 
364,2504281184,0.810101569,-0.149428204,97.74195099,0.014574481,0.146471456,9.435879707,1.228215218,-1.418951631,0.342680037,0.322265625,-0.084472656,-1.030761719, 
365,2504289517,0.810649812,-0.150182083,97.75087738,0.007794936,0.141697347,9.420360565,1.30697906,-1.496255398,0.362018794,0.318359375,-0.086425781,-1.026855469, 
366,2504297850,0.810754538,-0.150074661,97.75076294,-0.000566107,0.147838697,9.426376343,1.265202403,-1.390904188,0.358407199,0.323730469,-0.080322266,-1.027832031, 
367,2504306183,0.810879886,-0.149845287,97.76148224,-0.009309096,0.143064499,9.409190178,1.25669837,-1.377021074,0.476437569,0.320800781,-0.084960938,-1.028808594, 
368,2504314516,0.811046898,-0.149952769,97.76177979,0.004636075,0.12585327,9.403989792,1.271785259,-1.415596366,0.408226907,0.3203125,-0.083251953,-1.025390625, 
369,2504322849,0.810932815,-0.150163516,97.77132416,0.025225328,0.145442396,9.401337624,1.227139592,-1.433014035,0.316963345,0.32421875,-0.080322266,-1.02734375, 
370,2504331182,0.811157763,-0.150569245,97.7713623,0.013418686,0.137249216,9.441675186,1.278483152,-1.451225638,0.376375556,0.3203125,-0.082763672,-1.026855469, 
371,2504339515,0.811610878,-0.15146634,97.7795105,0.015344317,0.135474443,9.41795063,1.296349168,-1.515184283,0.432048112,0.322753906,-0.085449219,-1.026855469, 
372,2504347848,0.811391294,-0.151915699,97.77970123,0.01801463,0.142966539,9.44695282,1.224962354,-1.45665586,0.395009935,0.323242188,-0.080322266,-1.027832031, 
373,2504356181,0.812289834,-0.152276501,97.79029846,0.029106904,0.13373819,9.450629234,1.35001123,-1.449663401,0.44413808,0.323242188,-0.078857422,-1.023925781, 
374,2504364514,0.812333107,-0.152064621,97.79112244,0.028485509,0.125924751,9.442259789,1.256621599,-1.375561237,0.471442819,0.322753906,-0.083007813,-1.028808594, 
375,2504372847,0.812413394,-0.15065515,97.79727173,0.03270904,0.137347281,9.421154022,1.252036572,-1.239908218,0.358663321,0.321289063,-0.081787109,-1.028808594, 
376,2504381180,0.812988639,-0.150416583,97.79727173,0.020441685,0.147050172,9.42902565,1.320093632,-1.373153567,0.370471478,0.323242188,-0.083984375,-1.028808594, 
377,2504389513,0.812684715,-0.149841025,97.80567169,0.041754737,0.136943504,9.420926094,1.205585122,-1.337690592,0.413080752,0.321289063,-0.083984375,-1.02734375, 
378,2504397846,0.81280911,-0.150454566,97.80555725,0.009188334,0.157250479,9.47017765,1.266085982,-1.478043914,0.3598032,0.322265625,-0.084472656,-1.027832031, 
379,2504406179,0.813299417,-0.151032627,97.8146286,0.013870648,0.160014063,9.433038712,1.30208683,-1.47691679,0.356665432,0.320800781,-0.081787109,-1.026855469, 
380,2504414512,0.81355083,-0.150879353,97.81489563,-0.002433821,0.149793923,9.413199425,1.280289054,-1.383117437,0.403565079,0.322753906,-0.077880859,-1.025390625, 
381,2504422845,0.814078808,-0.150638446,97.82326508,0.017919723,0.145758867,9.439741135,1.306594849,-1.379941225,0.361352831,0.319335938,-0.078369141,-1.027832031, 
382,2504431178,0.814225316,-0.151005626,97.82305145,0.011099239,0.1282399,9.450939178,1.267558813,-1.447383642,0.347162515,0.321777344,-0.083251953,-1.026855469, 
383,2504439511,0.814534724,-0.150951222,97.82919312,0.01805307,0.143991679,9.416400909,1.279956222,-1.399715543,0.399185061,0.324707031,-0.080810547,-1.027832031, 
384,2504447844,0.814598322,-0.150621578,97.83003235,0.027813209,0.130045563,9.403949738,1.258593917,-1.362523556,0.470981777,0.3203125,-0.084472656,-1.027832031, 
385,2504456177,0.814683378,-0.15036054,97.83731842,0.006867515,0.122159682,9.44325161,1.252292633,-1.377968907,0.356844693,0.321777344,-0.081787109,-1.025390625, 
386,2504464510,0.814444244,-0.150650099,97.83740234,0.011313463,0.138754293,9.447498322,1.223092437,-1.437547684,0.381459981,0.323242188,-0.080810547,-1.02734375, 
387,2504472843,0.814461708,-0.149699256,97.84522247,0.013455849,0.1283236,9.429923058,1.244249821,-1.294825077,0.339452654,0.323730469,-0.082763672,-1.026367188, 
388,2504481176,0.814488292,-0.149213105,97.84494781,0.033393513,0.133054435,9.426356316,1.253599048,-1.344183803,0.339196473,0.323730469,-0.080810547,-1.027832031, 
389,2504489509,0.815346003,-0.148344874,97.85351563,0.01491531,0.138918221,9.401888847,1.345695019,-1.304520011,0.373506755,0.323730469,-0.080810547,-1.028320313, 
390,2504497842,0.816015005,-0.147474185,97.85310364,0.021457013,0.131003767,9.39479351,1.33218348,-1.299691916,0.321369022,0.319335938,-0.081787109,-1.024414063, 
391,2504506175,0.815893888,-0.146902546,97.8595047,0.022412289,0.129844427,9.43005085,1.228138566,-1.339803934,0.317117065,0.323242188,-0.083740234,-1.025878906, 
392,2504514508,0.816408396,-0.146682337,97.85929108,0.020243173,0.136575535,9.448397636,1.312665462,-1.377431035,0.346240401,0.320800781,-0.081298828,-1.026367188, 
393,2504522841,0.8166641,-0.146294847,97.86769867,0.004361469,0.146707639,9.40687561,1.272604823,-1.362959027,0.326005161,0.323242188,-0.084472656,-1.029296875, 
394,2504531174,0.816449523,-0.146664724,97.86788177,0.023488952,0.152249277,9.414354324,1.226832151,-1.447050452,0.393268138,0.322753906,-0.083251953,-1.026855469, 
395,2504539507,0.816648841,-0.146663815,97.8763504,0.003902509,0.133265421,9.426805496,1.265317559,-1.407681465,0.359111547,0.320800781,-0.082275391,-1.026855469, 
396,2504547840,0.817607582,-0.146750793,97.87645721,0.022929844,0.133624882,9.412560463,1.36641705,-1.414430857,0.384802699,0.323730469,-0.080322266,-1.027832031, 
397,2504556173,0.817621052,-0.146642759,97.88427734,0.002512477,0.129980162,9.431363106,1.244160056,-1.395757914,0.320152283,0.322265625,-0.084472656,-1.025878906, 
398,2504564506,0.818179309,-0.146777108,97.88475037,0.012634154,0.143276274,9.416918755,1.318979502,-1.418862224,0.429576367,0.3203125,-0.083251953,-1.026367188, 
399,2504572839,0.818615437,-0.147289023,97.89334869,0.008186994,0.144180909,9.428535461,1.295145392,-1.469770551,0.422570854,0.320800781,-0.078369141,-1.026367188, 
400,2504581172,0.818942487,-0.147615075,97.89315796,-0.001487997,0.152777374,9.417934418,1.290816426,-1.442849755,0.349544644,0.323242188,-0.081054688,-1.031738281, 
401,2504589505,0.818874896,-0.147793308,97.8979187,0.019281844,0.140154973,9.426609993,1.235335946,-1.430554867,0.354641885,0.322265625,-0.082275391,-1.026855469, 
402,2504597838,0.818934619,-0.147798419,97.89836884,0.008723503,0.147974864,9.406904221,1.258235216,-1.403583288,0.424952954,0.321777344,-0.0859375,-1.028320313, 
403,2504606171,0.818091273,-0.147759229,97.90602112,0.023850378,0.151264474,9.43145752,1.141921043,-1.402174354,0.429742813,0.321289063,-0.082275391,-1.024902344, 
404,2504614504,0.818280816,-0.146933988,97.90634155,0.024982238,0.164936259,9.41954422,1.275050998,-1.304315209,0.40744561,0.32421875,-0.082763672,-1.02734375, 
405,2504622837,0.818661571,-0.146991178,97.91375732,0.010676999,0.167429715,9.40237999,1.287166476,-1.415801167,0.371688157,0.32421875,-0.080810547,-1.026855469, 
406,2504631170,0.818603933,-0.147961035,97.91357422,0.022760382,0.108846098,9.409626961,1.245837808,-1.521075726,0.354308903,0.321289063,-0.083496094,-1.028320313, 
407,2504639503,0.81905055,-0.148283347,97.91989136,0.039668433,0.12483827,9.407288551,1.294889212,-1.447358012,0.408636659,0.321289063,-0.080810547,-1.023925781, 
408,2504647836,0.81875056,-0.148397565,97.91923523,0.03938967,0.145813003,9.417092323,1.214844584,-1.417978287,0.292706639,0.3203125,-0.080810547,-1.026367188, 
409,2504656169,0.819009185,-0.149042904,97.92591095,0.026536586,0.140312493,9.440958023,1.275115252,-1.486138105,0.376439631,0.321777344,-0.08203125,-1.030273438, 
410,2504664502,0.819668114,-0.150449693,97.92623901,0.036979835,0.132381707,9.41327095,1.329929471,-1.570767283,0.413426548,0.324707031,-0.082763672,-1.026855469, 
411,2504672835,0.819703579,-0.151101843,97.93223572,0.028770421,0.149152264,9.436986923,1.245773911,-1.490005612,0.266183108,0.322753906,-0.081298828,-1.025878906, 
412,2504681168,0.819384277,-0.151687592,97.93180847,0.021661419,0.124116443,9.445274353,1.213820219,-1.474432349,0.321112871,0.322265625,-0.081787109,-1.026855469, 
413,2504689501,0.819012105,-0.151235238,97.93820953,0.019267781,0.132485479,9.434083939,1.198221087,-1.35340488,0.346778303,0.323730469,-0.080322266,-1.025390625, 
414,2504697834,0.819120765,-0.150571987,97.93816376,0.036080271,0.111142375,9.401295662,1.265048623,-1.323897362,0.365784049,0.321289063,-0.081298828,-1.028808594, 
415,2504706167,0.819762349,-0.15087679,97.94413757,0.027745895,0.117371708,9.411018372,1.31973505,-1.445821285,0.371368021,0.321289063,-0.084960938,-1.02734375, 
416,2504714500,0.819931626,-0.15083164,97.94364929,0.020760462,0.13731356,9.428834915,1.27188766,-1.398229718,0.314145774,0.322753906,-0.083251953,-1.025390625, 
417,2504722833,0.819755733,-0.151522368,97.95316315,0.00942484,0.151245773,9.4419384,1.221350908,-1.491824389,0.385583937,0.317382813,-0.081787109,-1.024902344, 
418,2504731166,0.820497513,-0.151302546,97.95308685,0.002078731,0.140880749,9.401247978,1.341481686,-1.377533674,0.361250401,0.322753906,-0.082763672,-1.026367188, 
419,2504739499,0.820645273,-0.151079878,97.96109009,0.010826295,0.140265346,9.395280838,1.260591626,-1.382067204,0.39121896,0.322753906,-0.081298828,-1.028808594, 
420,2504747832,0.820937812,-0.150379032,97.95991516,0.00721409,0.141879499,9.438147545,1.285540104,-1.321233511,0.23015672,0.321289063,-0.081787109,-1.02734375, 
421,2504756165,0.821233571,-0.150652319,97.96578979,0.00036909,0.151324391,9.441976547,1.279123545,-1.441556215,0.302401632,0.3203125,-0.083251953,-1.025878906, 
422,2504764498,0.822049677,-0.150826722,97.96638489,0.016565086,0.157983944,9.414498329,1.349473119,-1.423741579,0.443164676,0.321289063,-0.083496094,-1.029296875, 
423,2504772831,0.822118878,-0.150653467,97.97278595,0.022183806,0.166717336,9.432062149,1.252471924,-1.389751554,0.317987919,0.322753906,-0.081787109,-1.02734375, 
424,2504781164,0.822325528,-0.151087195,97.97309875,0.030261528,0.152855963,9.423451424,1.275524855,-1.453735828,0.41140303,0.323242188,-0.083007813,-1.029296875, 
425,2504789497,0.822173417,-0.150897175,97.97915649,0.029762708,0.145249814,9.396715164,1.225743532,-1.386998057,0.381447196,0.321777344,-0.080810547,-1.028320313, 
426,2504797830,0.822015405,-0.150921971,97.97917175,0.041349065,0.139851794,9.425869942,1.231775761,-1.405452967,0.37367326,0.319824219,-0.083007813,-1.028320313, 
427,2504806163,0.822661281,-0.151317999,97.98471832,0.022764547,0.134376124,9.446652412,1.321617603,-1.457142591,0.338927507,0.322753906,-0.082763672,-1.027832031, 
428,2504814496,0.822990835,-0.152192518,97.98471832,0.015510089,0.116667189,9.430526733,1.289766431,-1.509523749,0.375235707,0.323242188,-0.083496094,-1.028808594, 
429,2504822829,0.823389232,-0.151570722,97.99303436,0.044297092,0.115666814,9.400672913,1.291584969,-1.332810998,0.443728179,0.321777344,-0.082763672,-1.026367188, 
430,2504831162,0.823698342,-0.151047632,97.99321747,0.012043454,0.113468572,9.411385536,1.289279699,-1.339675784,0.393216968,0.3203125,-0.083251953,-1.025390625, 
431,2504839495,0.824438989,-0.151653916,98.00040436,0.010455963,0.12796703,9.410669327,1.331568718,-1.48180902,0.383842081,0.323730469,-0.082275391,-1.025878906, 
432,2504847828,0.824199975,-0.151894435,98.00017548,0.008706818,0.117155112,9.411987305,1.223604798,-1.432860374,0.343960792,0.32421875,-0.080322266,-1.028320313, 
433,2504856161,0.824142814,-0.152039438,98.00711823,0.027042616,0.134507254,9.405558586,1.237538934,-1.424561262,0.433380038,0.3203125,-0.081787109,-1.02734375, 
434,2504864494,0.823926628,-0.152352989,98.00628662,0.015906775,0.136088923,9.42332077,1.223617554,-1.442350268,0.272125632,0.318359375,-0.080322266,-1.028320313, 
435,2504872827,0.824031234,-0.152530134,98.01293945,0.004515503,0.150155589,9.414307594,1.257197976,-1.431080103,0.358829826,0.322265625,-0.081298828,-1.029785156, 
436,2504881160,0.824564099,-0.152448192,98.01255035,0.019951966,0.118025102,9.452627182,1.315239787,-1.393708944,0.325198293,0.324707031,-0.083496094,-1.030273438, 
437,2504889493,0.824362397,-0.153391317,98.01844025,0.038791779,0.137850136,9.409033775,1.221415043,-1.522830367,0.354270518,0.319335938,-0.080322266,-1.026855469, 
438,2504897826,0.824162841,-0.153086111,98.01811981,0.021206528,0.135011017,9.437002182,1.227241993,-1.367723346,0.333023459,0.322265625,-0.083740234,-1.025878906, 
439,2504906159,0.823674679,-0.152771413,98.02298737,0.016249077,0.149629951,9.458703995,1.18499136,-1.371565461,0.307165921,0.323242188,-0.079833984,-1.025878906, 
440,2504914492,0.823374391,-0.153832316,98.02317047,0.033706188,0.13742955,9.452803612,1.21503675,-1.530975699,0.395996064,0.321777344,-0.084960938,-1.025878906, 
441,2504922825,0.823985636,-0.153777853,98.02682495,0.019873401,0.140308037,9.439383507,1.319005013,-1.403032541,0.300711125,0.321777344,-0.083496094,-1.02734375, 
442,2504931158,0.824482739,-0.154050857,98.02576447,0.040481508,0.15467833,9.418170929,1.309502006,-1.438047171,0.245102599,0.322753906,-0.083984375,-1.027832031, 
443,2504939491,0.825090587,-0.154738039,98.03483582,0.006802107,0.158301011,9.410209656,1.317596197,-1.492566943,0.401323825,0.322265625,-0.082275391,-1.025878906, 
444,2504947824,0.825582206,-0.154944271,98.03478241,-0.002690204,0.145425886,9.429044724,1.311897039,-1.42658484,0.36606583,0.322753906,-0.084472656,-1.029785156, 
445,2504956157,0.826068997,-0.154727519,98.04238129,0.021398138,0.143278375,9.430965424,1.302010059,-1.383168697,0.46163258,0.322753906,-0.080810547,-1.023925781, 
446,2504964490,0.825261414,-0.154849961,98.04218292,0.032483183,0.139455855,9.410264015,1.155214787,-1.417184472,0.349851996,0.323730469,-0.083007813,-1.029296875, 
447,2504972823,0.82442826,-0.154745296,98.04803467,0.009607557,0.135203555,9.422233582,1.143893361,-1.397589564,0.384072691,0.322753906,-0.080810547,-1.026367188, 
448,2504981156,0.824149311,-0.154364735,98.04811096,0.011375719,0.140172288,9.440401077,1.218148828,-1.357580066,0.380640328,0.321289063,-0.079833984,-1.026367188, 
449,2504989489,0.824355841,-0.154195264,98.05284119,0.030755932,0.126565441,9.415987968,1.269454241,-1.388573289,0.361480922,0.321289063,-0.083251953,-1.025878906, 
450,2504997822,0.824440181,-0.15441066,98.05351257,0.019718265,0.128446534,9.41531086,1.261718869,-1.427455902,0.452155322,0.320800781,-0.084960938,-1.024902344, 
451,2505006155,0.824337542,-0.154388949,98.06101227,0.024234602,0.107604824,9.409518242,1.232544303,-1.407066941,0.419830143,0.32421875,-0.083740234,-1.025878906, 
452,2505014488,0.824871957,-0.154288515,98.06092072,0.046017822,0.133584917,9.41853714,1.315457582,-1.390853047,0.36109671,0.319335938,-0.082519531,-1.028808594, 
453,2505022821,0.825170755,-0.154094189,98.06951141,0.036611814,0.11741069,9.421045303,1.280647755,-1.384910464,0.493880898,0.322265625,-0.082275391,-1.026367188, 
454,2505031154,0.825499535,-0.154399902,98.06946564,0.023900304,0.124879792,9.420087814,1.290406704,-1.439622521,0.36596337,0.320800781,-0.083007813,-1.028808594, 
455,2505039487,0.826550364,-0.153968275,98.07621765,0.014779044,0.128618538,9.439414978,1.371693611,-1.357106328,0.360341072,0.320800781,-0.082763672,-1.02734375, 
456,2505047820,0.826937973,-0.154366001,98.07689667,0.011155712,0.121687643,9.422171593,1.299435973,-1.449227929,0.454627097,0.322753906,-0.080322266,-1.024902344, 
457,2505056153,0.826828003,-0.15415296,98.08174133,0.019296993,0.136573136,9.403884888,1.23134017,-1.385166526,0.317193866,0.320800781,-0.080810547,-1.022460938, 
458,2505064486,0.827666938,-0.153505296,98.08151245,0.013791677,0.152714133,9.4199543,1.351560593,-1.324883342,0.341847569,0.321777344,-0.082275391,-1.02734375, 
459,2505072819,0.827654183,-0.153605208,98.08667755,0.028664272,0.141867742,9.404970169,1.244544387,-1.421423554,0.396995008,0.323242188,-0.083740234,-1.026367188, 
460,2505081152,0.828330457,-0.153707981,98.08656311,0.010828039,0.145957425,9.449084282,1.333105683,-1.415980577,0.358048618,0.32421875,-0.084960938,-1.028808594, 
461,2505089485,0.828339875,-0.153955221,98.09496307,0.003365267,0.142466247,9.428264618,1.246490955,-1.437624574,0.441947997,0.321289063,-0.082763672,-1.0234375, 
462,2505097818,0.829177916,-0.154247299,98.09525299,0.015964983,0.132934079,9.428142548,1.351740003,-1.437073708,0.409008086,0.323242188,-0.082763672,-1.027832031, 
463,2505106151,0.829024613,-0.154302806,98.10163116,0.011779075,0.144988701,9.416790009,1.22885561,-1.417209983,0.37618345,0.325195313,-0.080322266,-1.02734375, 
464,2505114484,0.828560531,-0.15461795,98.10209656,0.003613244,0.127960071,9.432244301,1.194814563,-1.439340711,0.42643863,0.323242188,-0.082275391,-1.026367188, 
465,2505122817,0.82891798,-0.154523492,98.10545349,0.023249611,0.137647346,9.422439575,1.289151788,-1.398767829,0.326543063,0.322265625,-0.083251953,-1.025878906, 
466,2505131150,0.828269005,-0.154980391,98.10597992,0.001413401,0.145389527,9.402056694,1.17375946,-1.458320856,0.43645373,0.32421875,-0.081787109,-1.024414063, 
467,2505139483,0.828564763,-0.154377371,98.11157227,-0.001101465,0.165970981,9.426722527,1.280596614,-1.337293744,0.302952379,0.318847656,-0.082275391,-1.02734375, 
468,2505147816,0.828121662,-0.154723763,98.11145782,-5.82165E-05,0.146986678,9.443292618,1.198169827,-1.445539355,0.359201193,0.322753906,-0.083740234,-1.024902344, 
469,2505156149,0.82894671,-0.155142367,98.11611176,0.01150201,0.149051875,9.429357529,1.34481132,-1.458602548,0.405255586,0.323242188,-0.080322266,-1.027832031, 
470,2505164482,0.82901293,-0.155465633,98.11598206,0.023413764,0.158393621,9.433265686,1.258965492,-1.443093419,0.357856512,0.325195313,-0.080322266,-1.028808594, 
471,2505172815,0.82878077,-0.155049518,98.11955261,0.009691224,0.138128266,9.429286003,1.21901989,-1.360397577,0.359457374,0.319335938,-0.081787109,-1.02734375, 
472,2505181148,0.828884661,-0.154901549,98.12026215,0.00979327,0.138140246,9.431411743,1.262820125,-1.383117437,0.455280185,0.325195313,-0.0859375,-1.029296875, 
473,2505189481,0.829180181,-0.15486972,98.12624359,0.038863268,0.122796781,9.432008743,1.282171726,-1.406106353,0.386339545,0.322265625,-0.080810547,-1.027832031, 
474,2505197814,0.828714788,-0.154357448,98.12693024,0.030889291,0.15257673,9.434250832,1.194314837,-1.341276646,0.453525633,0.323242188,-0.083007813,-1.028808594, 
475,2505206147,0.829556882,-0.154006988,98.132164,0.030505132,0.139888197,9.417194366,1.348448753,-1.367697835,0.420854717,0.3203125,-0.081787109,-1.024902344, 
476,2505214480,0.829197645,-0.154121563,98.1315155,0.036526218,0.125601709,9.444011688,1.206878662,-1.417414904,0.293577552,0.325195313,-0.083251953,-1.024414063, 
477,2505222813,0.829797387,-0.154123574,98.13665771,0.024686217,0.117916711,9.438778877,1.317647457,-1.411792636,0.305987656,0.325195313,-0.081787109,-1.02734375, 
478,2505231146,0.829924703,-0.154551506,98.13654327,0.004319123,0.130645305,9.43264389,1.267148852,-1.454760432,0.359636664,0.321777344,-0.081298828,-1.025878906, 
479,2505239479,0.821201742,-0.144387037,98.14065552,-0.012666597,0.140903056,9.441192627,1.131675243,-1.456425428,0.244808048,0.3203125,-0.080810547,-1.02734375, 
480,2505247812,0.820615828,-0.144131869,98.14096069,-0.012395606,0.157192186,9.41973114,1.181841016,-1.372769475,0.406216204,0.322265625,-0.080322266,-1.025878906, 
481,2505256145,0.820650876,-0.144168109,98.14607239,0.006635331,0.146474391,9.430130005,1.250883937,-1.415673137,0.384994775,0.319824219,-0.083007813,-1.028808594, 
482,2505264478,0.820734859,-0.144041121,98.14610291,0.005851478,0.156429708,9.418568611,1.265509605,-1.391698122,0.375005186,0.32421875,-0.081787109,-1.02734375, 
483,2505272811,0.821524739,-0.143794924,98.15258026,0.017714366,0.142598003,9.431817055,1.340917945,-1.381836772,0.434916884,0.3203125,-0.083984375,-1.026367188, 
484,2505281144,0.822015524,-0.144621298,98.1526947,0.018155074,0.142880484,9.435765266,1.314035773,-1.505118012,0.389157057,0.320800781,-0.078857422,-1.02734375, 
485,2505289477,0.821868718,-0.144351751,98.15775299,0.020141307,0.135992542,9.399572372,1.230008364,-1.379531384,0.417319894,0.323242188,-0.080322266,-1.0234375, 
486,2505297810,0.822011232,-0.144176349,98.15874481,0.030799424,0.149496615,9.410533905,1.271426678,-1.385038733,0.491088957,0.319335938,-0.082275391,-1.026855469, 
487,2505306143,0.821866989,-0.144693136,98.16225433,0.036815859,0.135450974,9.400400162,1.22885561,-1.472972155,0.385430157,0.322265625,-0.077880859,-1.025390625, 
488,2505314476,0.822112978,-0.145932093,98.16283417,0.038911566,0.136903495,9.439170837,1.284835577,-1.555027366,0.442152917,0.323730469,-0.079833984,-1.028320313, 
489,2505322809,0.822128654,-0.145789936,98.1649704,0.040633634,0.141965225,9.433350563,1.24909091,-1.39364481,0.439988494,0.3203125,-0.083251953,-1.025390625, 
490,2505331142,0.822008312,-0.146042317,98.16468048,0.05292663,0.140714809,9.463934898,1.240061998,-1.437611818,0.33726263,0.3203125,-0.082763672,-1.02734375, 
491,2505339475,0.822227776,-0.14622356,98.16996765,0.021951137,0.147359103,9.409549713,1.273437142,-1.433039546,0.411005974,0.320800781,-0.082275391,-1.024414063, 
492,2505347808,0.821760535,-0.145495504,98.17054749,0.023816979,0.148892805,9.426205635,1.197529554,-1.319030643,0.439271361,0.3203125,-0.082763672,-1.025878906, 
493,2505356141,0.821597695,-0.145794272,98.1763916,0.031480435,0.143438876,9.431736946,1.227856874,-1.448152184,0.390988529,0.322753906,-0.080322266,-1.025390625, 
494,2505364474,0.822087526,-0.146611735,98.17591858,0.023599431,0.139432654,9.427676201,1.313715577,-1.505271673,0.316912115,0.318847656,-0.081787109,-1.025390625, 
495,2505372807,0.822185993,-0.146614164,98.17941284,0.01999284,0.137506977,9.445214272,1.258260846,-1.410729647,0.428846359,0.321777344,-0.083740234,-1.025878906, 
496,2505381140,0.822677433,-0.146552682,98.17990112,0.006379714,0.124910817,9.405576706,1.312678337,-1.398345232,0.428782284,0.3203125,-0.082763672,-1.02734375, 
497,2505389473,0.822655559,-0.146503419,98.18583679,0.025045348,0.136995494,9.421366692,1.244826198,-1.407284379,0.357062429,0.322265625,-0.081298828,-1.026367188, 
498,2505397806,0.823226333,-0.146566167,98.18612671,0.022034442,0.134181902,9.411167145,1.322924137,-1.41263783,0.4075481,0.321289063,-0.080810547,-1.028320313, 
499,2505406139,0.822530985,-0.146620154,98.19094086,0.015903817,0.124495104,9.424123764,1.163552165,-1.419886708,0.345407993,0.3203125,-0.076416016,-1.02734375, 
500,2505414472,0.822107077,-0.147427469,98.19123077,0.006456254,0.131197006,9.437750816,1.203420877,-1.503017664,0.407945096,0.3203125,-0.081787109,-1.028808594, 
501,2505422805,0.822608054,-0.147573218,98.19364929,0.003859954,0.137924448,9.391542435,1.308119059,-1.427302122,0.441819966,0.320800781,-0.081787109,-1.02734375, 
502,2505431138,0.822855771,-0.147767037,98.19355774,0.000243219,0.142874882,9.443586349,1.284272194,-1.430631995,0.362671971,0.322265625,-0.084472656,-1.029296875, 
503,2505439471,0.822668791,-0.147990048,98.19696808,0.008449584,0.138213858,9.41576767,1.225500107,-1.440365195,0.277440548,0.319335938,-0.082275391,-1.027832031, 
504,2505447804,0.822304487,-0.148110777,98.19732666,0.042235613,0.136064559,9.421964645,1.209926724,-1.420642257,0.415398836,0.32421875,-0.082275391,-1.026367188, 
505,2505456137,0.8222574,-0.147916868,98.20248413,0.011541819,0.139107138,9.408629417,1.242392898,-1.388662815,0.334982961,0.322753906,-0.080810547,-1.026367188, 
506,2505464470,0.822667658,-0.147584304,98.20256042,0.032497365,0.149642661,9.448279381,1.302611947,-1.3676337,0.381805778,0.3203125,-0.083007813,-1.029296875, 
507,2505472803,0.822839677,-0.147222415,98.20684814,0.048446886,0.129513711,9.395148277,1.269147038,-1.366621971,0.464065939,0.319824219,-0.080810547,-1.024902344, 
508,2505481136,0.822658777,-0.147602543,98.20710754,0.045733079,0.139052123,9.418931007,1.231916666,-1.45280087,0.40265578,0.321289063,-0.083984375,-1.028320313, 
509,2505489469,0.822855592,-0.147433311,98.21209717,0.031991243,0.129431978,9.430864334,1.272028565,-1.390916944,0.368050903,0.323242188,-0.080810547,-1.02734375, 
510,2505497802,0.823019505,-0.147347346,98.21211243,0.033804152,0.159665227,9.42080307,1.273834229,-1.397256494,0.373212218,0.32421875,-0.081787109,-1.029296875, 
511,2505506135,0.823010802,-0.14781262,98.21747589,0.046822734,0.143244743,9.426813126,1.247579694,-1.46674788,0.391014099,0.319824219,-0.080810547,-1.029296875, 
512,2505514468,0.823606968,-0.147693396,98.21687317,0.024210798,0.134469762,9.406344414,1.325959325,-1.393286347,0.299596906,0.321777344,-0.083984375,-1.028808594, 
513,2505522801,0.824593246,-0.147620097,98.22100067,0.036178052,0.13118355,9.451943398,1.365674257,-1.400829673,0.430985093,0.322753906,-0.083740234,-1.025878906, 
514,2505531134,0.8246364,-0.148748413,98.22118378,0.016670927,0.146717772,9.417805672,1.259951353,-1.542361259,0.395599037,0.323730469,-0.081298828,-1.028320313, 
515,2505539467,0.824305654,-0.149602026,98.22582245,0.016912345,0.126992241,9.423687935,1.207186103,-1.514159918,0.385532677,0.319824219,-0.082275391,-1.02734375, 
516,2505547800,0.823919654,-0.149561599,98.22494507,0.014479997,0.126158372,9.433650017,1.20742929,-1.403134942,0.266874701,0.322753906,-0.083251953,-1.025390625, 
517,2505556133,0.823969781,-0.149243131,98.22877502,0.015944311,0.136409566,9.427311897,1.255148649,-1.372167349,0.414079726,0.322265625,-0.081787109,-1.026855469, 
518,2505564466,0.823729575,-0.14869149,98.22899628,-0.025633311,0.137701958,9.469046593,1.225116134,-1.34128952,0.397750646,0.321777344,-0.082763672,-1.025878906, 
519,2505572799,0.824996114,-0.149301469,98.23275757,-0.005584276,0.130162284,9.436443329,1.400676012,-1.483448386,0.398467839,0.325195313,-0.082763672,-1.025878906, 
520,2505581132,0.825613379,-0.149579167,98.23279572,0.00201312,0.124827102,9.438359261,1.327752233,-1.440800667,0.375696778,0.323730469,-0.083984375,-1.026855469, 
521,2505589465,0.82540077,-0.149513125,98.23847198,-0.006862155,0.123871945,9.387991905,1.222426534,-1.40378809,0.363120168,0.318847656,-0.0859375,-1.025878906, 
522,2505597798,0.826092362,-0.148568764,98.23822784,-0.014072991,0.149111956,9.399682045,1.337754607,-1.293198705,0.338492095,0.323730469,-0.078369141,-1.030761719, 
523,2505606131,0.826263368,-0.148483828,98.24759674,0.001720118,0.138783485,9.430726051,1.269057274,-1.400906444,0.403244883,0.321777344,-0.081298828,-1.024414063, 
524,2505614464,0.826146305,-0.148028433,98.2477951,0.002855903,0.122013576,9.428860664,1.239639163,-1.35322547,0.394318312,0.321289063,-0.081787109,-1.023925781, 
525,2505622797,0.826249778,-0.147256613,98.25201416,0.054166187,0.136664838,9.422153473,1.260899067,-1.319568396,0.383355439,0.320800781,-0.080810547,-1.025878906, 
526,2505631130,0.826050818,-0.146858215,98.25183868,0.04680521,0.128127828,9.390799522,1.230700016,-1.358502269,0.350722939,0.319335938,-0.085449219,-1.025878906, 
527,2505639463,0.826337397,-0.146677792,98.25518036,0.023162246,0.159088805,9.401878357,1.282850385,-1.391928673,0.321522683,0.320800781,-0.080322266,-1.028320313, 
528,2505647796,0.82618165,-0.147482768,98.25508881,0.038785119,0.139828891,9.398640633,1.235835671,-1.502735972,0.36233899,0.321777344,-0.0859375,-1.026367188, 
529,2505656129,0.826368332,-0.147273436,98.25888062,0.041268788,0.131014794,9.440282822,1.271144748,-1.387497544,0.37620908,0.321289063,-0.081298828,-1.026855469, 
530,2505664462,0.826126397,-0.146570325,98.25956726,0.040090118,0.16208595,9.419270515,1.225320935,-1.320644259,0.452693164,0.321289063,-0.082275391,-1.026367188, 
531,2505672795,0.826696217,-0.146365121,98.26470184,0.007211306,0.141364545,9.464120865,1.317352891,-1.386754632,0.439424992,0.320800781,-0.083007813,-1.028320313, 
532,2505681128,0.826965272,-0.146890521,98.26517487,0.020876728,0.140152067,9.437153816,1.285975695,-1.469053268,0.428692669,0.323242188,-0.080322266,-1.026855469, 
533,2505689461,0.82690841,-0.14654927,98.27015686,0.051907621,0.142644301,9.431968689,1.241970181,-1.370873809,0.439450622,0.323242188,-0.080810547,-1.029785156, 
534,2505697794,0.826685846,-0.147042632,98.26976776,0.034534268,0.14037402,9.425227165,1.227831125,-1.466645479,0.326594293,0.323242188,-0.083496094,-1.029785156, 
535,2505706127,0.826633036,-0.147826836,98.27362823,0.014775983,0.144777566,9.410695076,1.241048098,-1.505809546,0.337634027,0.322265625,-0.079345703,-1.025878906, 
536,2505714460,0.826672852,-0.147360727,98.27439117,-0.016542029,0.148851827,9.425305367,1.260015607,-1.348794341,0.4603903,0.322265625,-0.080322266,-1.029296875, 
537,2505722793,0.827025652,-0.148039773,98.27718353,-0.00542009,0.139753953,9.412330627,1.290906191,-1.494731307,0.344255269,0.319335938,-0.081298828,-1.025390625, 
538,2505731126,0.827069938,-0.147825584,98.27648926,-0.034194008,0.126839623,9.404281616,1.259925842,-1.381888032,0.289402455,0.321777344,-0.082275391,-1.025878906, 
539,2505739459,0.827380836,-0.147329122,98.27891541,0.008154368,0.148716062,9.43102932,1.285898566,-1.352329135,0.363786161,0.321777344,-0.079833984,-1.025390625, 
540,2505747792,0.828056693,-0.147725567,98.27876282,0.022066884,0.131541267,9.429629326,1.33474493,-1.455503225,0.353028178,0.32421875,-0.083251953,-1.026367188, 
541,2505756125,0.828634381,-0.147287339,98.28098297,0.026645843,0.121550113,9.439743996,1.317609072,-1.360167146,0.314734906,0.317382813,-0.082763672,-1.025390625, 
542,2505764458,0.828683197,-0.146887988,98.28063965,0.034153834,0.119845249,9.424600601,1.259298205,-1.358617425,0.329424679,0.321289063,-0.079345703,-1.025390625, 
543,2505772791,0.828705072,-0.146640435,98.28794098,0.053392231,0.129108816,9.412593842,1.251998186,-1.38218236,0.381985098,0.321777344,-0.081298828,-1.028808594, 
544,2505781124,0.829051137,-0.146000668,98.28782654,0.034953307,0.127623394,9.430005074,1.295862675,-1.331428051,0.358893901,0.323242188,-0.082763672,-1.025878906, 
545,2505789457,0.829420507,-0.145625383,98.29097748,0.048051979,0.118587621,9.435304642,1.293813467,-1.367467165,0.360814959,0.320800781,-0.082275391,-1.024414063, 
546,2505797790,0.830401063,-0.144748405,98.2907486,0.039221626,0.140671253,9.432641983,1.370989084,-1.302176476,0.341732293,0.319335938,-0.081787109,-1.026855469, 
547,2505806123,0.830651402,-0.144259691,98.29506683,0.027438767,0.136505127,9.460704803,1.278880358,-1.352482796,0.295139998,0.319824219,-0.082275391,-1.026367188, 
548,2505814456,0.830635428,-0.144675255,98.29460907,0.028461613,0.137699455,9.420063972,1.252228618,-1.457898259,0.316796839,0.319335938,-0.083007813,-1.028320313, 
549,2505822789,0.829757988,-0.144698232,98.29930878,0.030957395,0.146728188,9.437772751,1.145045877,-1.413598418,0.445572406,0.319824219,-0.078857422,-1.026855469, 
550,2505831122,0.829107523,-0.145093381,98.29929352,0.015437309,0.15507108,9.427967072,1.174771309,-1.454081774,0.370279431,0.318359375,-0.082275391,-1.025390625, 
551,2505839455,0.829023182,-0.146197557,98.30413055,0.032498073,0.131790519,9.423119545,1.241086364,-1.542578816,0.461440444,0.319824219,-0.082275391,-1.0234375, 
552,2505847788,0.829246104,-0.146172553,98.30441284,0.020861549,0.142110333,9.412711143,1.279507756,-1.404530883,0.406216174,0.323242188,-0.084472656,-1.026855469, 
553,2505856121,0.830100894,-0.146135524,98.30912018,0.012749046,0.13067697,9.442955971,1.353238463,-1.407143593,0.344601125,0.322753906,-0.081298828,-1.025878906, 
554,2505864454,0.830594897,-0.145596519,98.30934906,0.012387847,0.128649771,9.439887047,1.312896252,-1.34134078,0.397827506,0.321777344,-0.081787109,-1.026855469, 
555,2505872787,0.831105888,-0.145826295,98.31103516,0.023468064,0.13755025,9.404714584,1.310283303,-1.440621495,0.32083109,0.323730469,-0.083007813,-1.030273438, 
556,2505881120,0.830316424,-0.145219535,98.31127167,0.030182976,0.141604006,9.444682121,1.160183907,-1.334040523,0.399646074,0.321289063,-0.079833984,-1.025878906, 
557,2505889453,0.830578923,-0.145798907,98.31513977,0.006989185,0.144760773,9.419616699,1.281134367,-1.480579615,0.367320925,0.320800781,-0.081298828,-1.026855469, 
558,2505897786,0.830602467,-0.145282432,98.31452179,0.003079979,0.125017688,9.422486305,1.256083727,-1.345771909,0.296087772,0.322265625,-0.079345703,-1.025390625, 
559,2505906119,0.82997328,-0.145198673,98.31852722,0.009658788,0.143439904,9.425760269,1.174784064,-1.401073217,0.412145883,0.321777344,-0.081787109,-1.026367188, 
560,2505914452,0.830358624,-0.145573005,98.31855011,0.014047747,0.142058492,9.433135033,1.300217152,-1.450892806,0.37620908,0.319335938,-0.080810547,-1.026367188, 
561,2505922785,0.830625057,-0.146572679,98.32196045,0.006239548,0.131006643,9.431879044,1.280404329,-1.532896638,0.310854346,0.323242188,-0.080322266,-1.025878906, 
562,2505931118,0.829916537,-0.147381619,98.32178497,0.0063019,0.145003378,9.425274849,1.169853449,-1.504362583,0.353630155,0.321289063,-0.083251953,-1.023925781, 
563,2505939451,0.830670536,-0.148010835,98.32415009,0.038803566,0.141676515,9.420284271,1.339701295,-1.485971451,0.441486955,0.321777344,-0.083496094,-1.027832031, 
564,2505947784,0.830548704,-0.147009626,98.3239212,0.018215159,0.140144929,9.415906906,1.239933848,-1.287384152,0.341617048,0.3203125,-0.082275391,-1.024902344, 
565,2505956117,0.830787599,-0.147480309,98.33046722,0.030062485,0.13522847,9.409778595,1.277522683,-1.469693542,0.357126445,0.32421875,-0.081787109,-1.025878906, 
566,2505964450,0.830774367,-0.14784655,98.33098602,0.025011914,0.133717328,9.429450035,1.252753854,-1.448843598,0.434788823,0.320800781,-0.084472656,-1.029785156, 
567,2505972783,0.830567956,-0.147823632,98.33449554,0.017006997,0.117309295,9.412107468,1.224693418,-1.409308076,0.365284592,0.323730469,-0.081298828,-1.025390625, 
568,2505981116,0.830752194,-0.147613585,98.33413696,0.022190388,0.132570684,9.436237335,1.277407527,-1.38231051,0.331217647,0.320800781,-0.078857422,-1.025878906, 
569,2505989449,0.830603957,-0.147338897,98.33811951,0.011102839,0.139867991,9.433484077,1.232031941,-1.378122687,0.397776276,0.319335938,-0.082519531,-1.029785156, 
570,2505997782,0.830118954,-0.147452354,98.3379364,0.014480298,0.146607876,9.412368774,1.195672393,-1.421244264,0.349557459,0.3203125,-0.083984375,-1.027832031, 
571,2506006115,0.829823375,-0.14720434,98.34348297,0.003902623,0.148935691,9.415624619,1.213973761,-1.382553935,0.37111181,0.3203125,-0.081298828,-1.02734375, 
572,2506014448,0.829807699,-0.146217465,98.34281921,0.000377026,0.143843427,9.418812752,1.251818895,-1.288767338,0.289978743,0.321289063,-0.085449219,-1.026367188, 
573,2506022781,0.829461575,-0.146186337,98.34768677,0.001334882,0.150156751,9.394287109,1.208659053,-1.408642173,0.343256384,0.322265625,-0.080810547,-1.026855469, 
574,2506031114,0.82919544,-0.146355927,98.34757233,0.026486931,0.13974373,9.407552719,1.222426653,-1.427788734,0.358253509,0.32421875,-0.081298828,-1.026367188, 
575,2506039447,0.829030752,-0.146498069,98.35061646,0.011040883,0.130025223,9.451611519,1.229521632,-1.430375695,0.311917335,0.323730469,-0.081787109,-1.023925781, 
576,2506047780,0.829078555,-0.146235242,98.35074615,0.036729105,0.127420694,9.451020241,1.261104107,-1.374357343,0.385993719,0.322753906,-0.082275391,-1.02734375, 
577,2506056113,0.828234076,-0.146099582,98.35496521,0.037741698,0.119488053,9.429862976,1.148145199,-1.396155,0.344575465,0.322753906,-0.081787109,-1.025878906, 
578,2506064446,0.828688264,-0.146191612,98.3547287,0.044529974,0.120205276,9.457137108,1.309079528,-1.418362617,0.34600988,0.323242188,-0.081787109,-1.025878906, 
579,2506072779,0.829025745,-0.146428987,98.35892487,0.045788422,0.125065297,9.434597015,1.290355563,-1.440237164,0.42397961,0.320800781,-0.0859375,-1.026367188, 
580,2506081112,0.829476476,-0.146571189,98.35903931,0.03935165,0.124369502,9.426579475,1.308105946,-1.424510002,0.385891229,0.322753906,-0.081787109,-1.028320313, 
581,2506089445,0.829677224,-0.146096826,98.36378479,0.02610781,0.131233841,9.452008247,1.274935842,-1.354480743,0.362761587,0.322753906,-0.0859375,-1.026855469, 
582,2506097778,0.828949213,-0.146249011,98.36354828,0.03000343,0.135116845,9.405121803,1.165844917,-1.424484491,0.345087796,0.320800781,-0.082763672,-1.02734375, 
583,2506106111,0.829612613,-0.14627564,98.36720276,0.027587809,0.130771786,9.434069633,1.330723524,-1.414443612,0.457995296,0.32421875,-0.083740234,-1.025878906, 
584,2506114444,0.829406798,-0.146836802,98.36708832,0.010930273,0.113456145,9.406823158,1.228420258,-1.474073648,0.358817011,0.323242188,-0.083740234,-1.021484375, 
585,2506122777,0.83077538,-0.147305533,98.3693924,0.019707652,0.135538131,9.442747116,1.415532231,-1.468796968,0.268296301,0.3203125,-0.0859375,-1.028320313, 
586,2506131110,0.83078748,-0.147449389,98.36842346,0.012173295,0.150045425,9.403612137,1.254175305,-1.425905943,0.254349351,0.318847656,-0.081298828,-1.02734375, 
587,2506139443,0.830189407,-0.147180036,98.37287903,0.008501307,0.137400195,9.422519684,1.180034995,-1.380300045,0.376439631,0.318359375,-0.082275391,-1.027832031, 
588,2506147776,0.829962373,-0.147302136,98.37350464,0.012007405,0.147394285,9.449213028,1.22644794,-1.420053005,0.44654575,0.321777344,-0.085449219,-1.024902344, 
589,2506156109,0.829136729,-0.14766559,98.37656403,0.013814554,0.145416141,9.432905197,1.152320504,-1.454120278,0.372264504,0.322753906,-0.082275391,-1.028808594, 
590,2506164442,0.828958988,-0.147769481,98.3756485,0.013186315,0.142923623,9.42807579,1.231698871,-1.421923041,0.262072027,0.323242188,-0.079833984,-1.025878906, 
591,2506172775,0.828986347,-0.147866011,98.37844849,0.03265544,0.14310047,9.452000618,1.254124165,-1.422294378,0.413746685,0.321289063,-0.082763672,-1.026855469, 
592,2506181108,0.829051435,-0.147394344,98.3782196,0.021488689,0.13447994,9.438024521,1.262602568,-1.350497723,0.345151842,0.321289063,-0.0859375,-1.026367188, 
593,2506189441,0.828486681,-0.147920325,98.3824234,0.013360759,0.157073572,9.409156799,1.181892037,-1.474393845,0.402911901,0.321289063,-0.080322266,-1.025390625, 
594,2506197774,0.829564214,-0.147873402,98.38293457,-3.58246E-05,0.160401165,9.420128822,1.38398838,-1.400368571,0.432573169,0.323730469,-0.080810547,-1.027832031, 
595,2506206107,0.829212129,-0.147880763,98.38378143,-0.001131013,0.141576603,9.415318489,1.208851099,-1.413573027,0.289351225,0.322753906,-0.081787109,-1.026367188, 
596,2506214440,0.829865813,-0.14788641,98.38414001,-0.002057207,0.153057426,9.420137405,1.331773639,-1.407092333,0.414707273,0.321289063,-0.080810547,-1.028808594, 
597,2506222773,0.8306126,-0.148084253,98.38915253,0.016137831,0.125686362,9.426784515,1.339778304,-1.435076118,0.417435229,0.319335938,-0.080322266,-1.025878906, 
598,2506231106,0.830859601,-0.147959873,98.38908386,0.018038016,0.164794907,9.413458824,1.284438491,-1.392748356,0.362582266,0.321289063,-0.081298828,-1.024414063, 
599,2506239439,0.83133328,-0.148053959,98.39060974,0.009128198,0.129547462,9.44293499,1.306697488,-1.42179513,0.410532176,0.323730469,-0.083984375,-1.027832031, 
600,2506247772,0.83149761,-0.148764446,98.39133453,0.034278091,0.112309642,9.427206039,1.274051905,-1.490991831,0.459109515,0.319335938,-0.083007813,-1.029296875, 
601,2506256105,0.830900908,-0.1494748,98.3968811,0.028258547,0.124203831,9.417807579,1.17991972,-1.495333314,0.560618758,0.321777344,-0.081787109,-1.027832031, 
602,2506264438,0.830837131,-0.149890915,98.39711761,0.040204599,0.113825619,9.427132607,1.246350408,-1.455913067,0.40131104,0.322265625,-0.083984375,-1.027832031, 
603,2506272771,0.8311885,-0.149245471,98.40065002,0.017518952,0.138530493,9.444441795,1.293531775,-1.334143043,0.386710942,0.321289063,-0.080322266,-1.025878906, 
604,2506281104,0.831235468,-0.149573341,98.40026093,0.036130439,0.136480421,9.431550026,1.259823322,-1.447281003,0.324365824,0.320800781,-0.081298828,-1.029785156, 
605,2506289437,0.831328452,-0.149123028,98.40109253,0.026224336,0.116649054,9.4168396,1.26174438,-1.356709123,0.357049644,0.319335938,-0.079833984,-1.029785156, 
606,2506297770,0.831840754,-0.149347991,98.40061188,0.019897465,0.146163493,9.41664505,1.315431833,-1.435601115,0.315298438,0.322265625,-0.083740234,-1.025878906, 
607,2506306103,0.831051886,-0.148580536,98.40211487,0.021766188,0.129893988,9.435358047,1.156674743,-1.319517136,0.402668566,0.321777344,-0.083496094,-1.02734375, 
608,2506314436,0.830781519,-0.148994029,98.40229034,0.025412541,0.134910867,9.434685707,1.221273899,-1.456066847,0.393114448,0.323242188,-0.081298828,-1.025878906, 
609,2506322769,0.831042707,-0.148961902,98.40649414,0.013968196,0.138217151,9.445480347,1.282978535,-1.406605601,0.472006321,0.320800781,-0.082763672,-1.026855469, 
610,2506331102,0.831140935,-0.149461716,98.40682983,0.004450421,0.152309388,9.438134193,1.265099883,-1.465620875,0.412299544,0.321777344,-0.082763672,-1.026855469, 
611,2506339435,0.831736386,-0.149624452,98.4108963,0.012620284,0.138640791,9.433448792,1.322334886,-1.431105614,0.370535493,0.321777344,-0.081787109,-1.024414063, 
612,2506347768,0.831984758,-0.149144396,98.41027069,0.031378921,0.172089279,9.438897133,1.28441298,-1.350715637,0.296036571,0.324707031,-0.081787109,-1.029296875, 
613,2506356101,0.831059277,-0.149119526,98.41342926,0.022161154,0.163400233,9.426598549,1.139743805,-1.407348394,0.416961312,0.321777344,-0.082275391,-1.024414063, 
614,2506364434,0.830778539,-0.149367899,98.41279602,0.028676122,0.158570111,9.435969353,1.220390201,-1.438636303,0.295178413,0.323730469,-0.083740234,-1.026367188, 
615,2506372767,0.830279946,-0.149147764,98.41552734,0.025220191,0.169640169,9.404015541,1.191433311,-1.386063218,0.34339729,0.32421875,-0.082763672,-1.026855469, 
616,2506381100,0.829614758,-0.149497122,98.41474915,0.019814277,0.160934597,9.393081665,1.173144817,-1.450277805,0.279079884,0.323242188,-0.082275391,-1.025878906, 
617,2506389433,0.829606056,-0.149802312,98.41788483,0.011210029,0.159493878,9.428189278,1.249398232,-1.448536158,0.390962869,0.3203125,-0.083251953,-1.023925781, 
618,2506397766,0.830319643,-0.149383962,98.4174118,0.011113437,0.145356119,9.417210579,1.3398422,-1.357349515,0.314196974,0.32421875,-0.082763672,-1.025878906, 
619,2506406099,0.830307782,-0.149228826,98.42027283,0.02997412,0.134662256,9.408941269,1.249936104,-1.393004537,0.384508073,0.319335938,-0.079345703,-1.024414063, 
620,2506414432,0.830307066,-0.149793506,98.4200592,0.024427686,0.127279893,9.440638542,1.252753735,-1.47422719,0.346189171,0.325195313,-0.083496094,-1.028320313, 
621,2506422765,0.830504179,-0.149814293,98.42182159,0.025659936,0.133715108,9.432754517,1.273949623,-1.416236639,0.302043051,0.322753906,-0.082763672,-1.027832031, 
622,2506431098,0.830383539,-0.150612116,98.42131042,0.027029185,0.136337072,9.45684433,1.240126133,-1.502377391,0.3107391,0.321777344,-0.080810547,-1.026855469, 
623,2506439431,0.830991924,-0.150644779,98.424263,0.00470114,0.122771971,9.430160522,1.322386146,-1.41918242,0.23654747,0.321777344,-0.080810547,-1.026367188, 
624,2506447764,0.83109647,-0.150881782,98.42430115,0.012026505,0.111804649,9.432729721,1.26699543,-1.434883952,0.377617866,0.323730469,-0.082763672,-1.0234375, 
625,2506456097,0.83120203,-0.151279911,98.4265213,0.025957733,0.119442433,9.423035622,1.263511658,-1.460574865,0.329949766,0.320800781,-0.083496094,-1.028808594, 
626,2506464430,0.830220401,-0.151265696,98.42625427,0.012633855,0.136837423,9.42698288,1.136644483,-1.405324936,0.338223159,0.323730469,-0.080810547,-1.026367188, 
627,2506472763,0.830736756,-0.150960907,98.43171692,-0.006189066,0.110476866,9.419850349,1.311845779,-1.374152303,0.417294294,0.321777344,-0.082275391,-1.025878906, 
628,2506481096,0.831078649,-0.150936589,98.43197632,0.004182024,0.130749896,9.422171593,1.295503855,-1.404402852,0.401976973,0.321289063,-0.084472656,-1.027832031, 
629,2506489429,0.830986083,-0.150997028,98.43604279,0.008708032,0.140016362,9.439551353,1.240920067,-1.416902542,0.426003158,0.322753906,-0.080322266,-1.02734375, 
630,2506497762,0.831008077,-0.151934981,98.43610382,0.026956029,0.146671951,9.392146111,1.256032467,-1.520128012,0.381639272,0.322265625,-0.084472656,-1.02734375, 
631,2506506095,0.831603825,-0.151718631,98.43692017,0.025928341,0.150791347,9.410863876,1.323602796,-1.384142041,0.448338747,0.3203125,-0.082275391,-1.025390625, 
632,2506514428,0.831467986,-0.15169172,98.43650818,0.011994054,0.132313952,9.422706604,1.237666845,-1.404863834,0.321830034,0.320800781,-0.081298828,-1.026855469, 
633,2506522761,0.831004441,-0.151893318,98.43994904,0.025823239,0.160981804,9.41986084,1.194865704,-1.43659997,0.329770476,0.322265625,-0.078857422,-1.028320313, 
634,2506531094,0.831698775,-0.151958913,98.43974304,0.021925438,0.15197286,9.421829224,1.336192131,-1.415071011,0.345638484,0.323242188,-0.081787109,-1.024902344, 
635,2506539427,0.831710875,-0.152359486,98.44001007,0.023946479,0.144877419,9.424669266,1.253227711,-1.461099863,0.322508812,0.322753906,-0.083251953,-1.022460938, 
636,2506547760,0.831221104,-0.152140051,98.43989563,0.032983288,0.144316569,9.422106743,1.194430232,-1.380684137,0.357843637,0.325195313,-0.079833984,-1.026367188, 
637,2506556093,0.830903411,-0.152017474,98.44482422,0.010079836,0.158078641,9.440749168,1.214255452,-1.398434758,0.3131468,0.323730469,-0.084472656,-1.027832031, 
638,2506564426,0.830841124,-0.152050838,98.44496155,0.034061886,0.150459439,9.414639473,1.245402455,-1.409371972,0.389093012,0.321777344,-0.083740234,-1.025390625, 
639,2506572759,0.830788255,-0.151970252,98.44932556,0.025808441,0.136997014,9.454940796,1.245210409,-1.403134942,0.383829296,0.321777344,-0.082275391,-1.028320313, 
640,2506581092,0.830726564,-0.152212068,98.44924164,0.030855091,0.1259294,9.426208496,1.24652946,-1.435652256,0.362582266,0.325195313,-0.083251953,-1.024414063, 
641,2506589425,0.830474198,-0.15129137,98.45292664,0.023766998,0.107098691,9.405639648,1.221453309,-1.301433802,0.3711887,0.322265625,-0.082275391,-1.025390625, 
642,2506597758,0.830648005,-0.152023673,98.45220184,0.022106068,0.137079358,9.426933289,1.273424506,-1.496614218,0.287071526,0.3203125,-0.082763672,-1.026855469, 
643,2506606091,0.830621898,-0.15229325,98.45658875,0.032195415,0.126910284,9.421625137,1.248194456,-1.442798615,0.438656539,0.32421875,-0.083740234,-1.026855469, 
644,2506614424,0.831683636,-0.152480543,98.45639801,-0.004499279,0.138766095,9.420083046,1.382387638,-1.429120779,0.348289609,0.318847656,-0.080810547,-1.025878906, 
645,2506622757,0.831673682,-0.152772009,98.45767975,0.026454598,0.133918867,9.416903496,1.248975635,-1.446525574,0.376324326,0.322265625,-0.085449219,-1.028320313, 
646,2506631090,0.831929862,-0.153048605,98.45726776,-0.00035044,0.133439243,9.437808037,1.285014987,-1.440506101,0.322508782,0.319335938,-0.082275391,-1.024414063, 
647,2506639423,0.831284761,-0.153595746,98.46162415,-0.013574354,0.138488561,9.446915627,1.173516273,-1.477646828,0.412850291,0.321289063,-0.080322266,-1.026367188, 
648,2506647756,0.83164686,-0.15363805,98.46205139,0.013965052,0.137782723,9.417626381,1.297386527,-1.40994823,0.42524749,0.322265625,-0.079833984,-1.026367188, 
649,2506656089,0.832095623,-0.153627932,98.46463013,0.009513706,0.149354756,9.435930252,1.306351542,-1.410588861,0.362134069,0.323730469,-0.079833984,-1.02734375, 
650,2506664422,0.832024038,-0.15350987,98.46413422,-0.000405277,0.134903103,9.420840263,1.244057775,-1.394374847,0.312673002,0.320800781,-0.080322266,-1.026855469, 
651,2506672755,0.831951439,-0.15352121,98.46560669,0.02181562,0.144757017,9.431944847,1.243148446,-1.414776564,0.328745902,0.322753906,-0.080810547,-1.02734375, 
652,2506681088,0.832153797,-0.152879879,98.46591949,0.00525769,0.140098989,9.420330048,1.278035045,-1.328354239,0.408457369,0.321289063,-0.082275391,-1.025878906, 
653,2506689421,0.832286298,-0.153140381,98.46738434,0.02497557,0.126389951,9.434551239,1.267891884,-1.444412351,0.337096125,0.322753906,-0.082763672,-1.025390625, 
654,2506697754,0.832168579,-0.153765678,98.46790314,0.019421792,0.140961558,9.387499809,1.23920393,-1.480938196,0.433431268,0.321777344,-0.079345703,-1.026855469, 
655,2506706087,0.832206964,-0.154017642,98.469841,0.016583703,0.144667879,9.447467804,1.256954551,-1.442491293,0.39370361,0.31640625,-0.077880859,-1.023925781, 
656,2506714420,0.832413256,-0.154744446,98.47013092,0.020597268,0.134473324,9.411348343,1.278393745,-1.493130565,0.406818122,0.319824219,-0.083251953,-1.025878906, 
657,2506722753,0.832890093,-0.154330954,98.46543121,0.040584654,0.146032065,9.403944969,1.307862639,-1.36238265,0.345945835,0.323242188,-0.081298828,-1.024902344, 
658,2506731086,0.833003521,-0.154935837,98.46586609,0.015976474,0.156568095,9.410256386,1.268237591,-1.478876233,0.423147142,0.321289063,-0.084960938,-1.026367188, 
659,2506739419,0.832793593,-0.154580027,98.46859741,0.012555861,0.145913765,9.442274094,1.225820422,-1.369221807,0.399658918,0.321289063,-0.078857422,-1.024414063, 
660,2506747752,0.832492948,-0.154703915,98.46920776,0.023806054,0.133482978,9.420279503,1.218085051,-1.420706511,0.444483846,0.321289063,-0.081298828,-1.026367188, 
661,2506756085,0.832457304,-0.155131817,98.47013855,0.010165016,0.143567234,9.425145149,1.246875167,-1.464532256,0.273969859,0.317871094,-0.083984375,-1.026367188, 
662,2506764418,0.832594752,-0.154932559,98.47044373,0.023148535,0.122327954,9.390969276,1.270619631,-1.382797122,0.407317549,0.320800781,-0.083251953,-1.025390625, 
663,2506772751,0.832360983,-0.154418111,98.47841644,0.001896948,0.123547249,9.41101265,1.222951531,-1.350933075,0.375683963,0.322753906,-0.080810547,-1.026367188, 
664,2506781084,0.832921863,-0.154114649,98.47769928,0.006899709,0.115996346,9.396764755,1.321745753,-1.371475697,0.284599781,0.318847656,-0.079833984,-1.025390625, 
665,2506789417,0.833638012,-0.154327899,98.47911072,0.021326311,0.123760521,9.433336258,1.337921023,-1.437829494,0.442319393,0.318359375,-0.081298828,-1.0234375, 
666,2506797750,0.833857,-0.155036092,98.48020935,0.016232913,0.119002506,9.423918724,1.280314684,-1.489083529,0.503716707,0.321289063,-0.082763672,-1.02734375, 
667,2506806083,0.833589435,-0.154236495,98.480896,-0.007688694,0.149453342,9.45392704,1.218904853,-1.3174299,0.331115216,0.321289063,-0.081298828,-1.026855469, 
668,2506814416,0.833978832,-0.15405646,98.48104095,0.0012186,0.149312064,9.412119865,1.300844431,-1.384462237,0.390540212,0.323242188,-0.081298828,-1.025878906, 
669,2506822749,0.834212422,-0.15405862,98.48343658,0.008554971,0.134697005,9.430080414,1.28081429,-1.413329601,0.370638013,0.322753906,-0.083251953,-1.025878906, 
670,2506831082,0.834256291,-0.154880404,98.48284912,0.01098685,0.143867701,9.430938721,1.25809443,-1.5059762,0.303836077,0.319335938,-0.080810547,-1.025878906, 
671,2506839415,0.833502889,-0.154820457,98.48680115,0.002239073,0.139292821,9.407156944,1.161707878,-1.406541586,0.312621742,0.320800781,-0.082275391,-1.023925781, 
672,2506847748,0.833799958,-0.154472798,98.48657227,0.017694334,0.112849005,9.42166996,1.289830327,-1.365763783,0.344050407,0.318359375,-0.082275391,-1.026855469, 
673,2506856081,0.833987534,-0.154105514,98.48950195,0.038263153,0.151478335,9.410737991,1.27447474,-1.367953897,0.384738654,0.324707031,-0.079833984,-1.029296875, 
674,2506864414,0.833810449,-0.154763386,98.4892807,0.052447557,0.157345191,9.417748451,1.231634736,-1.486611724,0.344076008,0.321777344,-0.079345703,-1.027832031, 
675,2506872747,0.834338903,-0.15476194,98.49111938,0.041664202,0.159509301,9.432525635,1.315892816,-1.413393497,0.328694671,0.321777344,-0.084716797,-1.024414063, 
676,2506881080,0.834041715,-0.15470928,98.49121094,0.03976791,0.159416229,9.431418419,1.217815876,-1.399997234,0.382458925,0.322265625,-0.081787109,-1.025878906, 
677,2506889413,0.833649457,-0.153668284,98.49543762,0.039013088,0.149760336,9.442481995,1.204381466,-1.2872051,0.419202596,0.320800781,-0.084960938,-1.02734375, 
678,2506897746,0.834126711,-0.153854787,98.49530029,0.033380259,0.160298109,9.453577995,1.312614202,-1.429760933,0.356281221,0.324707031,-0.085449219,-1.026367188, 
679,2506906079,0.834366083,-0.154145434,98.50027466,0.042167008,0.150979683,9.425982475,1.278649688,-1.44666636,0.392627776,0.321289063,-0.081298828,-1.024902344, 
680,2506914412,0.834433675,-0.154890463,98.4998703,0.024147237,0.149981096,9.42915535,1.263088942,-1.496767759,0.32442984,0.3203125,-0.079833984,-1.022460938, 
681,2506922745,0.834830582,-0.155214921,98.50270844,0.029574215,0.144300386,9.429548264,1.298475266,-1.450636625,0.440936238,0.3203125,-0.079345703,-1.027832031, 
682,2506931078,0.834868252,-0.15449962,98.5025177,0.003749234,0.143062055,9.456308365,1.259695292,-1.320798039,0.346599042,0.323730469,-0.082275391,-1.025878906, 
683,2506939411,0.834999025,-0.154509321,98.50510406,0.014742653,0.127070174,9.421705246,1.265945077,-1.413752079,0.389887065,0.321289063,-0.081298828,-1.024414063, 
684,2506947744,0.83396399,-0.153872862,98.50479126,-0.012654873,0.119280353,9.412239075,1.130240917,-1.330710888,0.334944576,0.322753906,-0.084960938,-1.025878906, 
685,2506956077,0.833274484,-0.154210076,98.50637817,0.009894069,0.104570083,9.420543671,1.168252349,-1.453735828,0.275750041,0.322753906,-0.080322266,-1.025878906, 
686,2506964410,0.833456993,-0.153196767,98.50635529,-0.016595045,0.111762986,9.427697182,1.276626348,-1.285348177,0.36619392,0.3203125,-0.081298828,-1.025878906, 
687,2506972743,0.833331168,-0.153304487,98.50791168,0.003752249,0.109353803,9.42921257,1.236539841,-1.425560117,0.325185508,0.321289063,-0.080322266,-1.028808594, 
688,2506981076,0.833069563,-0.153310955,98.5083313,0.027079334,0.106173448,9.424825668,1.222247243,-1.407783985,0.420598507,0.322753906,-0.081787109,-1.02734375, 
689,2506989409,0.832428455,-0.152332664,98.50856781,0.001930225,0.135943055,9.406604767,1.173990011,-1.29556787,0.383970201,0.322265625,-0.080322266,-1.0234375, 
690,2506997742,0.832318723,-0.151928261,98.50828552,0.013969242,0.127543554,9.417512894,1.242046952,-1.359014392,0.338684231,0.322753906,-0.082275391,-1.028320313, 
691,2507006075,0.831543028,-0.152096182,98.50999451,0.027804324,0.129388466,9.436236382,1.158723831,-1.432860136,0.344396174,0.322265625,-0.081298828,-1.026367188, 
692,2507014408,0.831796765,-0.152031645,98.50944519,0.040029418,0.149447083,9.437963486,1.283414245,-1.399843574,0.305411339,0.322265625,-0.080810547,-1.025390625, 
693,2507022741,0.832664132,-0.151432559,98.51180267,0.034408052,0.144327715,9.439888954,1.356158257,-1.340136647,0.385353357,0.318359375,-0.082275391,-1.02734375, 
694,2507031074,0.83265239,-0.151446834,98.51191711,0.048380811,0.158993408,9.442067146,1.252715349,-1.4074893,0.383906126,0.321289063,-0.080322266,-1.025390625, 
695,2507039407,0.832628191,-0.151429027,98.51617432,0.03438279,0.155095726,9.409645081,1.248924494,-1.411101222,0.377809972,0.321777344,-0.084960938,-1.025390625, 
696,2507047740,0.832881212,-0.151180893,98.51631165,0.026645448,0.145866066,9.436663628,1.285001993,-1.376457691,0.389477253,0.319824219,-0.084960938,-1.025878906, 
697,2507056073,0.832798183,-0.151042655,98.51983643,0.041599762,0.150575757,9.462319374,1.242994785,-1.394592643,0.428257197,0.319824219,-0.084716797,-1.021972656, 
698,2507064406,0.832760334,-0.151677951,98.51991272,0.036739815,0.141212478,9.404977798,1.249449492,-1.483448505,0.380794019,0.322753906,-0.079833984,-1.02734375, 
699,2507072739,0.833165884,-0.151643634,98.52490997,0.013132837,0.145626724,9.419587135,1.300268054,-1.40634954,0.494060129,0.322265625,-0.081787109,-1.025390625, 
700,2507081072,0.833037674,-0.151564524,98.52521515,0.01437268,0.12905255,9.420145988,1.238217711,-1.395937443,0.407266319,0.320800781,-0.080810547,-1.026367188, 
701,2507089405,0.833727658,-0.151049137,98.52776337,0.014852236,0.14736402,9.405157089,1.335218787,-1.350984335,0.3924613,0.322753906,-0.082763672,-1.024414063, 
702,2507097738,0.833497524,-0.151714131,98.527771,-0.020556118,0.128280371,9.435716629,1.227395773,-1.486932039,0.372776747,0.320800781,-0.080322266,-1.026855469, 
703,2507106071,0.83330828,-0.152015179,98.5293045,-0.020941768,0.126139134,9.419765472,1.228061676,-1.447204113,0.32569778,0.321777344,-0.081787109,-1.026855469, 
704,2507114404,0.833388805,-0.152243197,98.52929688,-0.025359226,0.132612377,9.412620544,1.26445961,-1.435140014,0.370036066,0.320800781,-0.080810547,-1.02734375, 
705,2507122737,0.83336246,-0.151727855,98.53170776,-0.00971949,0.1311104,9.418445587,1.247771859,-1.34965241,0.388798475,0.322265625,-0.080810547,-1.025878906, 
706,2507131070,0.833055854,-0.15161489,98.53132629,-0.008216485,0.137882978,9.401026726,1.217649579,-1.394272327,0.326350957,0.320800781,-0.081787109,-1.02734375, 
707,2507139403,0.833879709,-0.151829809,98.53383636,-0.002382223,0.127211303,9.420642853,1.351202011,-1.437803745,0.406728446,0.321289063,-0.080322266,-1.022949219, 
708,2507147736,0.833674788,-0.151948214,98.53368378,0.013810836,0.122588702,9.430532455,1.22888124,-1.422537684,0.352080494,0.32421875,-0.082275391,-1.028320313, 
709,2507156069,0.833588064,-0.151988178,98.53507996,0.03428787,0.131105155,9.402575493,1.241970181,-1.41641593,0.349083573,0.321289063,-0.081787109,-1.025390625, 
710,2507164402,0.833658278,-0.152029499,98.53531647,0.046731528,0.137052789,9.422814369,1.262295008,-1.411869287,0.4000175,0.321777344,-0.080322266,-1.03125, 
711,2507172735,0.833890915,-0.152209282,98.53829193,0.073353976,0.124593072,9.419028282,1.280558109,-1.433359861,0.429755658,0.32421875,-0.080322266,-1.026855469, 
712,2507181068,0.833653688,-0.151622772,98.53801727,0.081085324,0.133349881,9.430296898,1.224668026,-1.337793112,0.338620216,0.323730469,-0.085449219,-1.027832031, 
713,2507189401,0.833329797,-0.151358321,98.5398941,0.068508945,0.128642961,9.43512249,1.213333488,-1.3812989,0.375261337,0.3203125,-0.083984375,-1.026855469, 
714,2507197734,0.83276093,-0.151731521,98.54063416,0.083715968,0.122937299,9.452689171,1.186899543,-1.449432611,0.45909673,0.323242188,-0.080810547,-1.02734375, 
715,2507206067,0.832419097,-0.151320204,98.54444122,0.057580046,0.119848646,9.45194149,1.21143806,-1.362626076,0.433482498,0.322265625,-0.079833984,-1.027832031, 
716,2507214400,0.832289696,-0.151032493,98.54351807,0.030714864,0.125271678,9.418433189,1.238051057,-1.372871637,0.260842532,0.323730469,-0.081298828,-1.02734375, 
717,2507222733,0.832855403,-0.151311144,98.54512024,-0.012674036,0.159230575,9.41546154,1.319465995,-1.445846677,0.378296614,0.3203125,-0.081298828,-1.028320313, 
718,2507231066,0.832734168,-0.151450515,98.5454483,-0.006825991,0.148639381,9.420211792,1.240113258,-1.422320127,0.412286729,0.322265625,-0.083984375,-1.02734375, 
719,2507239399,0.82408905,-0.138659611,98.54799652,-0.042250734,0.145519197,9.445173264,1.265868306,-1.463956118,0.437836945,0.323242188,-0.081787109,-1.025390625, 
720,2507247732,0.824531972,-0.139275491,98.54885101,-0.039965905,0.16192171,9.417031288,1.307952404,-1.478837729,0.475233674,0.321777344,-0.082763672,-1.024902344, 
721,2507256065,0.824959695,-0.13965185,98.55111694,-0.037182786,0.160840392,9.422896385,1.305211663,-1.458167076,0.388427049,0.321289063,-0.082275391,-1.023925781, 
722,2507264398,0.82514441,-0.140226081,98.55131531,-0.038591135,0.141718477,9.431740761,1.277471781,-1.478530645,0.396777362,0.322753906,-0.083251953,-1.025878906, 
723,2507272731,0.825347781,-0.139375359,98.55448914,-0.007506871,0.135714263,9.379733086,1.277740359,-1.311871409,0.400529742,0.321289063,-0.082275391,-1.02734375, 
724,2507281064,0.824631989,-0.139880478,98.55470276,0.006386925,0.123203062,9.428296089,1.170724154,-1.469706297,0.399249047,0.317382813,-0.082763672,-1.025390625, 
725,2507289397,0.824267268,-0.140241325,98.5581665,0.026965782,0.106807806,9.422178268,1.208633304,-1.457539558,0.395611852,0.325195313,-0.082763672,-1.026367188, 
726,2507297730,0.824223995,-0.140519097,98.5592041,0.041554309,0.109202787,9.457475662,1.252651334,-1.441876531,0.495059103,0.319824219,-0.080810547,-1.028808594, 
727,2507306063,0.823744774,-0.141249746,98.5610199,0.070569262,0.123641655,9.43479538,1.19617188,-1.501685739,0.373109698,0.319335938,-0.084228516,-1.0234375, 
728,2507314396,0.824324548,-0.141865373,98.56128693,0.074460745,0.133920819,9.457602501,1.324217439,-1.483960629,0.405178726,0.323730469,-0.084716797,-1.023925781, 
729,2507322729,0.823972285,-0.14121744,98.56375885,0.060852613,0.112617284,9.446269035,1.211566329,-1.33642292,0.336199671,0.321289063,-0.081298828,-1.026367188, 
730,2507331062,0.824194193,-0.141530126,98.56363678,0.081359968,0.122926004,9.419750214,1.283542037,-1.446794391,0.357971728,0.322753906,-0.084228516,-1.025390625, 
731,2507339395,0.823957384,-0.141917661,98.56456757,0.070988253,0.148357332,9.427838326,1.224129915,-1.461253643,0.272817194,0.322265625,-0.082763672,-1.024902344, 
732,2507347728,0.823649168,-0.141746357,98.5642395,0.052130576,0.130954117,9.418622017,1.220146775,-1.39126277,0.332664877,0.321777344,-0.082275391,-1.025390625, 
