PacketCounter,SampleTimeFine,Euler_X,Euler_Y,Euler_Z,Acc_X,Acc_Y,Acc_Z,Gyr_X,Gyr_Y,Gyr_Z,
1,225332813,-0.506343842,0.542807281,-45.94541931,-0.097402833,-0.097125761,9.408485413,1.270427585,-1.339342713,0.380332947, 
2,225341146,-0.495881706,0.531596065,-45.94090271,-0.102931194,-0.073477574,9.408502579,1.250781655,-1.350766778,0.531149566, 
3,225349479,-0.486767948,0.521444798,-45.95547867,-0.104823768,-0.093587697,9.426876068,1.326240897,-1.2327106,0.549079478, 
4,225357812,-0.475340456,0.510761797,-45.95199203,-0.099502474,-0.082651466,9.393940926,1.367121339,-1.286910176,0.408124387, 
5,225366145,-0.466726094,0.509623706,-45.9131279,-0.115983896,-0.07538759,9.404978752,1.295017242,-1.393388867,0.472185612, 
6,225374478,-0.456149012,0.498595446,-45.90913391,-0.101240866,-0.08086057,9.40866375,1.265535235,-1.326202631,0.468881339, 
7,225382811,-0.44718504,0.503140688,-45.92538071,-0.093935683,-0.093713395,9.406884193,1.285104632,-1.291879535,0.357356995, 
8,225391144,-0.436725467,0.492271364,-45.92212296,-0.101324961,-0.093820266,9.395961761,1.250704646,-1.30822134,0.380358577, 
9,225399477,-0.431954443,0.495420992,-45.90740967,-0.075637586,-0.073733702,9.41420269,1.201576591,-1.26065588,0.41642344, 
10,225407810,-0.420798004,0.484674543,-45.90378189,-0.085134663,-0.10878659,9.390546799,1.334386349,-1.293493152,0.424491882, 
11,225416143,-0.41550988,0.48283568,-45.86830902,-0.088803992,-0.086822055,9.427164078,1.352521062,-1.362164974,0.550770104, 
12,225424476,-0.404708177,0.471478611,-45.86450195,-0.103374533,-0.081298247,9.412582397,1.291712999,-1.367210984,0.445956618, 
13,225432809,-0.402400345,0.467728913,-45.85630035,-0.086974978,-0.095945053,9.418125153,1.388560534,-1.291751504,0.499797761, 
14,225441142,-0.39192608,0.45817551,-45.85242081,-0.083251484,-0.082912862,9.410793304,1.254137039,-1.150796294,0.457175732, 
15,225449475,-0.389924526,0.455557287,-45.84913254,-0.070747547,-0.090330496,9.425462723,1.354006767,-1.183736205,0.389835835, 
16,225457808,-0.378478587,0.444578439,-45.84581757,-0.103950232,-0.090437397,9.414636612,1.370323062,-1.321438313,0.388427079, 
17,225466141,-0.376412064,0.438382924,-45.81590652,-0.100368649,-0.074061789,9.385306358,1.303239465,-1.34090519,0.478742898, 
18,225474474,-0.365936488,0.427632362,-45.81208801,-0.113068238,-0.073954664,9.40555954,1.25406003,-1.293390751,0.450874567, 
19,225482807,-0.362447798,0.423228264,-45.80482864,-0.093031481,-0.075828619,9.422006607,1.326369047,-1.249052525,0.509659231, 
20,225491140,-0.351608306,0.412511617,-45.80002594,-0.104152419,-0.074061394,9.418431282,1.29691267,-1.28824234,0.568802476, 
21,225499473,-0.347761929,0.408473074,-45.77853775,-0.106064096,-0.066885322,9.403803825,1.275473714,-1.344081402,0.52472043, 
22,225507806,-0.336929977,0.397926688,-45.77455902,-0.115283526,-0.079707108,9.394802094,1.296707988,-1.268801212,0.470392674, 
23,225516139,-0.331673026,0.395272493,-45.75455093,-0.100647025,-0.054022014,9.403823853,1.319427609,-1.234708667,0.348955512, 
24,225524472,-0.32090348,0.384316653,-45.75090408,-0.102565512,-0.059585039,9.41488266,1.290048003,-1.318108439,0.429563522, 
25,225532805,-0.314552546,0.380030245,-45.73333359,-0.106214784,-0.057841219,9.43509388,1.334335208,-1.458961129,0.490474194, 
26,225541138,-0.304281503,0.369384408,-45.72956467,-0.102556579,-0.061620247,9.383883476,1.229444861,-1.280276299,0.444394141, 
27,225549471,-0.2974509,0.366980314,-45.7147522,-0.108057849,-0.061599426,9.416920662,1.327803493,-1.321284652,0.463886589, 
28,225557804,-0.2860111,0.356518418,-45.71114349,-0.097090296,-0.070634425,9.427944183,1.368786216,-1.257530808,0.425875068, 
29,225566137,-0.278763652,0.35336709,-45.69079971,-0.108398713,-0.061794832,9.382229805,1.29184103,-1.339189053,0.50176996, 
30,225574470,-0.268157303,0.34251821,-45.68748093,-0.089975119,-0.081858933,9.398776054,1.270273924,-1.305096388,0.390245676, 
31,225582803,-0.261714131,0.340482503,-45.67184448,-0.092094369,-0.093106516,9.360462189,1.195224166,-1.207992911,0.481995851, 
32,225591136,-0.250824839,0.329392135,-45.66779327,-0.084686279,-0.067470312,9.409738541,1.303290606,-1.332734108,0.478794068, 
33,225599469,-0.244399697,0.326029867,-45.65441132,-0.102958769,-0.100275315,9.424796104,1.242917895,-1.247208238,0.536041915, 
34,225607802,-0.233631581,0.3149032,-45.65029526,-0.071882851,-0.089471243,9.435540199,1.288562536,-1.337575436,0.48701629, 
35,225616135,-0.227472469,0.31089291,-45.63094711,-0.086568929,-0.08770445,9.437529564,1.318095565,-1.391646862,0.516626298, 
36,225624468,-0.216855749,0.300091237,-45.62824631,-0.08285775,-0.093201585,9.419299126,1.273219705,-1.298846722,0.318064809, 
37,225632801,-0.211760148,0.295475811,-45.59008789,-0.099478103,-0.091597192,9.415801048,1.278419375,-1.432834625,0.44152537, 
38,225641134,-0.201179042,0.284414351,-45.5860939,-0.088521235,-0.097240172,9.397510529,1.267174602,-1.329404354,0.472313672, 
39,225649467,-0.195229575,0.280214816,-45.57210922,-0.094127864,-0.086269461,9.397532463,1.390020609,-1.301894784,0.425849497, 
40,225657800,-0.184564292,0.268899918,-45.56779861,-0.101376519,-0.078920402,9.401259422,1.27716434,-1.360397696,0.511785209, 
41,225666133,-0.179723352,0.263958573,-45.54795456,-0.092002615,-0.084292926,9.423268318,1.249321699,-1.325972319,0.505176783, 
42,225674466,-0.168340012,0.252844214,-45.54399109,-0.103559129,-0.08661294,9.372168541,1.363919377,-1.33614099,0.470341355, 
43,225682799,-0.163471401,0.248096168,-45.52273178,-0.088422194,-0.089850903,9.419748306,1.292993784,-1.338087559,0.368985832, 
44,225691132,-0.15263094,0.237446249,-45.51908493,-0.083497822,-0.092229605,9.361196518,1.299909592,-1.280455589,0.432637215, 
45,225699465,-0.147632748,0.232409254,-45.49942017,-0.112574987,-0.068206884,9.386940002,1.289971352,-1.332913518,0.424696833, 
46,225707798,-0.135794014,0.222470045,-45.49541092,-0.087044805,-0.075434536,9.39782238,1.419912219,-1.195185781,0.475950897, 
47,225716131,-0.130237892,0.217503488,-45.477108,-0.090392195,-0.074975654,9.443701744,1.318428636,-1.284963608,0.530944645, 
48,225724464,-0.11963243,0.206043512,-45.47328186,-0.112539053,-0.073342696,9.423820496,1.270325184,-1.377021194,0.454563022, 
49,225732797,-0.114810839,0.201576248,-45.44663239,-0.108877763,-0.073356442,9.425678253,1.322962403,-1.318031669,0.470418245, 
50,225741130,-0.103627175,0.190408871,-45.44258118,-0.101645358,-0.07163015,9.420168877,1.341020346,-1.3409307,0.481918991, 
51,225749463,-0.098906174,0.186032057,-45.41875839,-0.103271663,-0.067763582,9.436707497,1.304929972,-1.332734108,0.472211212, 
52,225757796,-0.087092601,0.174621791,-45.41457748,-0.107056685,-0.064182766,9.434938431,1.416454434,-1.372154474,0.494828641, 
53,225766129,-0.081985906,0.170567721,-45.39143753,-0.10353139,-0.086117126,9.420572281,1.341020346,-1.304968476,0.465321004, 
54,225774462,-0.07094752,0.159138098,-45.38769913,-0.108996198,-0.062380217,9.416777611,1.324345589,-1.373947501,0.441217989, 
55,225782795,-0.06596566,0.155203879,-45.36950302,-0.092891857,-0.077372253,9.385706902,1.318172574,-1.294978738,0.483430237, 
56,225791128,-0.055357065,0.145190433,-45.36561966,-0.09973523,-0.062147502,9.425977707,1.273936749,-1.203228712,0.458584458, 
57,225799461,-0.049963929,0.140586823,-45.33618546,-0.111342385,-0.079118259,9.397068977,1.298552036,-1.308016419,0.493445426, 
58,225807794,-0.039214097,0.129753172,-45.33206177,-0.100156978,-0.075295672,9.417117119,1.290329814,-1.301459193,0.488553017, 
59,225816127,-0.033184744,0.124785691,-45.31516266,-0.091402166,-0.095777243,9.400844574,1.391403675,-1.382425904,0.417934686, 
60,225824460,-0.022559751,0.113292679,-45.31105042,-0.091171823,-0.084689043,9.404455185,1.275422335,-1.380146146,0.485812366, 
61,225832793,-0.017611865,0.109313704,-45.29042435,-0.085444428,-0.075334229,9.415340424,1.267046571,-1.252689719,0.412991107, 
62,225841126,-0.007109508,0.09851753,-45.28631973,-0.094935194,-0.090243094,9.404728889,1.260822177,-1.296515703,0.483788878, 
63,225849459,-0.000952742,0.093303815,-45.26765442,-0.076844782,-0.090484463,9.406405449,1.418426633,-1.388265848,0.548925817, 
64,225857792,0.009403291,0.082527295,-45.26441956,-0.065941595,-0.086994611,9.376999855,1.243763208,-1.295491099,0.378975362, 
65,225866125,0.014583491,0.077531084,-45.247509,-0.08590588,-0.079437569,9.402880669,1.304981232,-1.339240193,0.480484605, 
66,225874458,0.024753558,0.066532873,-45.24287796,-0.074806929,-0.092237584,9.412135124,1.221837401,-1.322257996,0.546492517, 
67,225882791,0.03011292,0.061252162,-45.22060013,-0.080575146,-0.087029897,9.399395943,1.302317262,-1.322283506,0.568930566, 
68,225891124,0.041849561,0.05025712,-45.21631622,-0.082674131,-0.0835329,9.386634827,1.408462763,-1.321310282,0.50428021, 
69,225899457,0.04717727,0.04505197,-45.19822311,-0.08612714,-0.103282414,9.407189369,1.341174126,-1.332682967,0.499900222, 
70,225907790,0.058239564,0.033393186,-45.19449615,-0.102246873,-0.095598787,9.429363251,1.329135299,-1.400278926,0.438144296, 
71,225916123,0.063002765,0.02725243,-45.17109299,-0.102167509,-0.090201207,9.425722122,1.267328262,-1.422537684,0.515755415, 
72,225924456,0.07441593,0.016517635,-45.16690826,-0.102553122,-0.083232842,9.396409035,1.372423291,-1.290188909,0.492753804, 
73,225932789,0.079201482,0.012041344,-45.14614487,-0.111634381,-0.086658366,9.405838966,1.347680211,-1.296771884,0.476616889, 
74,225941122,0.089357615,0.001358187,-45.1420517,-0.10221602,-0.064595737,9.412795067,1.22155571,-1.283324361,0.482380092, 
75,225949455,0.093942821,-0.003137485,-45.12065506,-0.089638956,-0.070327073,9.407279015,1.265714645,-1.249180794,0.458840638, 
76,225957788,0.104581751,-0.013987985,-45.11707306,-0.104116894,-0.071910888,9.427759171,1.280033112,-1.303636551,0.418139607, 
77,225966121,0.109083757,-0.018099952,-45.09509277,-0.100551844,-0.057371672,9.420247078,1.265765786,-1.219724178,0.452027202, 
78,225974454,0.119891338,-0.027942417,-45.09123611,-0.104730271,-0.064966239,9.404020309,1.298628807,-1.183736205,0.4515405, 
79,225982787,0.124278605,-0.032556307,-45.06945038,-0.101614989,-0.072816059,9.385857582,1.272860885,-1.315675139,0.554356039, 
80,225991120,0.134935036,-0.043303639,-45.0654068,-0.103329666,-0.056287091,9.389374733,1.282133222,-1.291725755,0.473799288, 
81,225999453,0.140342712,-0.048191588,-45.04668427,-0.096188128,-0.074652813,9.391472816,1.326113105,-1.288882852,0.438989609, 
82,226007786,0.151511118,-0.057821419,-45.0426178,-0.088828251,-0.059838343,9.396706581,1.343171954,-1.15748179,0.475515425, 
83,226016119,0.15679267,-0.063757189,-45.02447891,-0.108923368,-0.081554905,9.421264648,1.29714334,-1.409192801,0.548413634, 
84,226024452,0.168343648,-0.074777767,-45.02054214,-0.100259937,-0.087509803,9.392017365,1.39012289,-1.323333859,0.460095674, 
85,226032785,0.173970476,-0.079501472,-44.9940567,-0.088915795,-0.08708673,9.417551041,1.374805689,-1.307478666,0.586297035, 
86,226041118,0.183778048,-0.090017878,-44.99030685,-0.094170682,-0.083208933,9.419521332,1.181904793,-1.263883233,0.436709881, 
87,226049451,0.189179137,-0.094445758,-44.96928406,-0.090780936,-0.079751715,9.419483185,1.345912695,-1.261014462,0.446801901, 
88,226057784,0.200079873,-0.104629152,-44.96524811,-0.098083489,-0.081359364,9.427067757,1.311794639,-1.224642158,0.471340328, 
89,226066117,0.204155385,-0.109237984,-44.9432869,-0.081507929,-0.075970173,9.432271004,1.222362638,-1.315214276,0.394228727, 
90,226074450,0.214542881,-0.120258063,-44.94024277,-0.092821896,-0.070817322,9.415985107,1.251447439,-1.325536609,0.351440102, 
91,226082783,0.219167501,-0.125051767,-44.91976166,-0.109400943,-0.094503447,9.425947189,1.309617639,-1.355992079,0.451233208, 
92,226091116,0.230423108,-0.136510059,-44.91589355,-0.107943736,-0.085796684,9.403891563,1.355441451,-1.377431154,0.44933778, 
93,226099449,0.23468779,-0.141263947,-44.89659119,-0.100146927,-0.074514888,9.418311119,1.247374773,-1.331223011,0.448261917, 
94,226107782,0.245616481,-0.151965514,-44.89277267,-0.094904706,-0.078389987,9.411042213,1.317942023,-1.287243128,0.440654457, 
95,226116115,0.250628948,-0.15681304,-44.87290955,-0.094838113,-0.069193304,9.416470528,1.314868569,-1.321336031,0.473824948, 
96,226124448,0.26136288,-0.166864425,-44.86860657,-0.091255575,-0.076443225,9.416649818,1.294171929,-1.209580898,0.49920854, 
97,226132781,0.265793502,-0.172124758,-44.84941864,-0.10045784,-0.065611474,9.416699409,1.252292633,-1.37863493,0.461811841, 
98,226141114,0.276537508,-0.183395401,-44.84599686,-0.086347334,-0.079021834,9.3929739,1.295939445,-1.356504202,0.392320424, 
99,226149447,0.281916171,-0.187616542,-44.82364273,-0.107909583,-0.065611258,9.413389206,1.37019515,-1.259913087,0.407099873, 
100,226157780,0.292113721,-0.1978416,-44.81996155,-0.119425669,-0.056891866,9.382411957,1.231109858,-1.229765058,0.422878265, 
101,226166113,0.296916068,-0.202608332,-44.80043411,-0.102388404,-0.081905045,9.432116508,1.2694031,-1.294645786,0.508429766, 
102,226174446,0.308103234,-0.213075474,-44.79669952,-0.088226959,-0.076914676,9.411699295,1.350728154,-1.261244893,0.428590149, 
103,226182779,0.313577682,-0.217740655,-44.77753067,-0.091763198,-0.069370337,9.420884132,1.358361483,-1.299461484,0.384636164, 
104,226191112,0.325064957,-0.228901118,-44.77376175,-0.106665835,-0.078496985,9.417796135,1.386562586,-1.34333849,0.43396914, 
105,226199445,0.32936132,-0.233779207,-44.7547493,-0.111998118,-0.087463513,9.421877861,1.237385273,-1.344414353,0.43389231, 
106,226207778,0.340863705,-0.244684219,-44.75078201,-0.092093334,-0.080479488,9.415927887,1.388560414,-1.313600421,0.45661214, 
107,226216111,0.344876617,-0.248986632,-44.73113632,-0.094006673,-0.08057221,9.406924248,1.216893792,-1.287960529,0.494188219, 
108,226224444,0.356071413,-0.259016842,-44.72731781,-0.101919763,-0.084555835,9.390781403,1.35270071,-1.208761454,0.437836945, 
109,226232777,0.360061407,-0.263444632,-44.71165848,-0.074081726,-0.075338192,9.40477562,1.194455862,-1.282504797,0.38614741, 
110,226241110,0.37081787,-0.274881005,-44.70722961,-0.093153976,-0.081459865,9.383425713,1.30200994,-1.376713991,0.508993208, 
111,226249443,0.375436485,-0.279208809,-44.6862793,-0.089017354,-0.060991235,9.394002914,1.243161201,-1.237423658,0.478627592, 
112,226257776,0.386168838,-0.290513694,-44.68239594,-0.074246816,-0.077373154,9.414279938,1.299704671,-1.362651706,0.441679031, 
113,226266109,0.391068101,-0.295832157,-44.66146851,-0.081218258,-0.080672629,9.429267883,1.260489106,-1.339470625,0.448389977, 
114,226274442,0.401974499,-0.307365537,-44.6576004,-0.083702408,-0.072268412,9.399931908,1.320862174,-1.38898313,0.438426018, 
115,226282775,0.406210124,-0.312027872,-44.63618851,-0.105483472,-0.082880661,9.408112526,1.255725026,-1.331146121,0.459839553, 
116,226291108,0.416894585,-0.32297954,-44.6314621,-0.098157384,-0.075678468,9.409726143,1.294402599,-1.320541978,0.541267276, 
117,226299441,0.42104727,-0.327659994,-44.61278534,-0.100055538,-0.075779706,9.404399872,1.208543658,-1.293057799,0.476335108, 
118,226307774,0.431747705,-0.338567287,-44.6096077,-0.090314783,-0.097065859,9.443240166,1.297245622,-1.316110611,0.354257673, 
119,226316107,0.436798096,-0.343497038,-44.58953094,-0.09617652,-0.059231065,9.418807983,1.326778889,-1.334168673,0.508224845, 
120,226324440,0.447561204,-0.355169982,-44.58512497,-0.094549797,-0.081317283,9.417551994,1.303495526,-1.407912016,0.502794623, 
121,226332773,0.451922029,-0.3591021,-44.56335068,-0.088558361,-0.062651224,9.429937363,1.301036596,-1.269902468,0.524182439, 
122,226341106,0.462832659,-0.369967103,-44.55877686,-0.118892536,-0.048852172,9.386465073,1.32214272,-1.311064482,0.5195207, 
123,226349439,0.466743976,-0.374250293,-44.53793716,-0.098873682,-0.092745565,9.396310806,1.22908628,-1.293954372,0.548259914, 
124,226357772,0.477692127,-0.384752125,-44.53353119,-0.100841761,-0.067349046,9.388538361,1.328572035,-1.267110705,0.497594982, 
125,226366105,0.482698172,-0.390229374,-44.51264954,-0.094760433,-0.061392147,9.414008141,1.292378902,-1.371616721,0.520596504, 
126,226374438,0.493529409,-0.400407404,-44.50871658,-0.084171817,-0.083552599,9.405249596,1.314919591,-1.230046868,0.438221186, 
127,226382771,0.49853006,-0.406313032,-44.48833847,-0.093239613,-0.079837434,9.412824631,1.308157444,-1.448997259,0.365604758, 
128,226391104,0.509535789,-0.41764304,-44.484375,-0.088897131,-0.091965809,9.367347717,1.337383151,-1.367800117,0.442959756, 
129,226399437,0.514947593,-0.422028601,-44.46523666,-0.084042527,-0.087045521,9.414862633,1.381849647,-1.284553885,0.429870933, 
130,226407770,0.526016593,-0.433151871,-44.46046829,-0.095435277,-0.092710868,9.404419899,1.345246792,-1.342109084,0.537629962, 
131,226416103,0.53205806,-0.437803328,-44.4399147,-0.095555,-0.063592948,9.392827988,1.426751256,-1.279200315,0.480074793, 
132,226424436,0.543596327,-0.449520946,-44.43601608,-0.091676198,-0.086924352,9.411756516,1.400983334,-1.414136291,0.432893366, 
133,226432769,0.549239874,-0.454163939,-44.41509628,-0.090095542,-0.079787455,9.397029877,1.396885037,-1.297437787,0.456048638, 
134,226441102,0.559060752,-0.464779228,-44.41041183,-0.075620368,-0.081916116,9.387665749,1.197811246,-1.282530308,0.524028838, 
135,226449435,0.563787103,-0.469160527,-44.38892746,-0.087374851,-0.069822811,9.43174839,1.307363272,-1.283324361,0.502948284, 
136,226457768,0.57509762,-0.479827255,-44.38476181,-0.093976922,-0.076160967,9.397400856,1.377290368,-1.289138913,0.459506571, 
137,226466101,0.580082297,-0.483960062,-44.36489487,-0.104782477,-0.07570526,9.406966209,1.349332333,-1.262986779,0.443100691, 
138,226474434,0.590442657,-0.494851381,-44.36062622,-0.082613096,-0.070267439,9.413700104,1.264203191,-1.317980409,0.471212238, 
139,226482767,0.595186353,-0.499830514,-44.33878326,-0.112044707,-0.077391617,9.416637421,1.309502363,-1.351483941,0.557954907, 
140,226491100,0.605988383,-0.510783136,-44.33465195,-0.072047271,-0.083471343,9.406683922,1.318018794,-1.326663733,0.454230011, 
141,226499433,0.61077553,-0.515353918,-44.31370926,-0.085135892,-0.083572052,9.399839401,1.348013043,-1.337805748,0.491678059, 
142,226507766,0.62209475,-0.52699697,-44.30895233,-0.103362203,-0.079666056,9.404026031,1.380927324,-1.407963276,0.526615858, 
143,226516099,0.626526654,-0.531083524,-44.28946686,-0.109885447,-0.069646843,9.422418594,1.281172752,-1.253867984,0.371739388, 
144,226524432,0.637518883,-0.541957319,-44.28543091,-0.097873732,-0.079570562,9.404155731,1.342454791,-1.317211986,0.437324613, 
145,226532765,0.642056108,-0.546013892,-44.26434326,-0.116135381,-0.091926634,9.414317131,1.32485795,-1.279175043,0.571517646, 
146,226541098,0.653022051,-0.556783497,-44.25906372,-0.114894591,-0.081542797,9.39396286,1.339675665,-1.303661942,0.584773004, 
147,226549431,0.656811357,-0.561625004,-44.2390976,-0.092079319,-0.05563603,9.411053658,1.227754354,-1.36877358,0.462682724, 
148,226557764,0.668218076,-0.573624849,-44.23477936,-0.106691122,-0.071831442,9.42305088,1.393042922,-1.453095436,0.471314639, 
149,226566097,0.673037112,-0.578564823,-44.215168,-0.103340656,-0.068535976,9.404683113,1.340533614,-1.371334791,0.438118666, 
150,226574430,0.683501005,-0.589587033,-44.2109375,-0.077576004,-0.072320431,9.407849312,1.281928301,-1.337985039,0.45653528, 
151,226582763,0.687617898,-0.593637943,-44.18905258,-0.101659261,-0.088652112,9.405508995,1.282286882,-1.295260549,0.465730816, 
152,226591096,0.698051631,-0.603973687,-44.18519211,-0.096524343,-0.085367948,9.394408226,1.278393626,-1.256711125,0.409533203, 
153,226599429,0.702131748,-0.607658088,-44.16404343,-0.08878769,-0.07951095,9.410628319,1.268942118,-1.239959598,0.42907688, 
154,226607762,0.712893009,-0.618577302,-44.16025543,-0.094403028,-0.077709697,9.412709236,1.318889856,-1.327534556,0.400107175, 
155,226616095,0.716693938,-0.623169959,-44.13901901,-0.112842798,-0.084978297,9.409959793,1.227831244,-1.337703347,0.457380593, 
156,226624428,0.727537274,-0.632834136,-44.13354492,-0.097966194,-0.08471261,9.424304962,1.332490921,-1.175488472,0.596030474, 
157,226632761,0.731598198,-0.636978924,-44.1135025,-0.102967978,-0.078684002,9.382261276,1.288408875,-1.316955924,0.443036586, 
158,226641094,0.741654098,-0.647158325,-44.10866547,-0.088687725,-0.079150558,9.431470871,1.237513304,-1.238473773,0.518035054, 
159,226649427,0.746520817,-0.651097,-44.08757401,-0.076791853,-0.07280793,9.407204628,1.370668888,-1.274743676,0.444406956, 
160,226657760,0.757480383,-0.661628485,-44.0826416,-0.095741227,-0.074906223,9.391507149,1.347321391,-1.281505585,0.528511286, 
161,226666093,0.761369705,-0.665264785,-44.06214905,-0.097045191,-0.085123211,9.414006233,1.297399402,-1.281992316,0.48176533, 
162,226674426,0.77222681,-0.676139832,-44.0577507,-0.094931789,-0.063074782,9.418893814,1.33464241,-1.32348752,0.463784158, 
163,226682759,0.776366174,-0.680677414,-44.03781891,-0.104639918,-0.061711706,9.400978088,1.291789889,-1.351176262,0.46160692, 
164,226691092,0.787282765,-0.69142139,-44.03291702,-0.090022512,-0.078139909,9.408503532,1.343837976,-1.309476495,0.522440732, 
165,226699425,0.792241335,-0.695105612,-44.01326752,-0.0971433,-0.077648632,9.418024063,1.409308076,-1.274103284,0.399518043, 
166,226707758,0.803243041,-0.706465781,-44.00951385,-0.089917026,-0.06148069,9.410101891,1.354314208,-1.385576367,0.382484555, 
167,226716091,0.806675434,-0.710535526,-43.98871231,-0.103154741,-0.054552831,9.392128944,1.240702271,-1.331594348,0.537591577, 
168,226724424,0.817507625,-0.721645892,-43.98400879,-0.088680558,-0.054887552,9.38997364,1.336627483,-1.355812669,0.49543044, 
169,226732757,0.821932614,-0.725874186,-43.96409225,-0.093815975,-0.072520576,9.407365799,1.332644463,-1.325485349,0.442498684, 
170,226741090,0.832489073,-0.73704952,-43.95968628,-0.086874768,-0.078424729,9.398308754,1.303137064,-1.364444613,0.455126524, 
171,226749423,0.837046862,-0.741650581,-43.93970108,-0.093403108,-0.081166357,9.424440384,1.34714222,-1.371514201,0.441422909, 
172,226757756,0.848173976,-0.752497971,-43.93462372,-0.11340566,-0.077072844,9.428796768,1.37519002,-1.324204803,0.535273492, 
173,226766089,0.852392673,-0.756755114,-43.91350937,-0.091869988,-0.065036319,9.411326408,1.345195651,-1.365290046,0.520033062, 
174,226774422,0.863716006,-0.767547309,-43.90852737,-0.07079684,-0.096818052,9.397171974,1.399549007,-1.319722176,0.518393636, 
175,226782755,0.867464185,-0.771873593,-43.88737106,-0.08864522,-0.076246731,9.402750969,1.313843727,-1.401175499,0.521185696, 
176,226791088,0.878483951,-0.781983733,-43.88274002,-0.093916342,-0.084846921,9.412545204,1.363227844,-1.238294482,0.473363876, 
177,226799421,0.882687271,-0.785361707,-43.86138916,-0.091125786,-0.081924967,9.443680763,1.327624083,-1.242469668,0.503537416, 
178,226807754,0.893508792,-0.795856297,-43.85639191,-0.097729363,-0.077390358,9.414554596,1.340713143,-1.284989357,0.515524924, 
179,226816087,0.897398949,-0.799914598,-43.83579254,-0.085037895,-0.074018992,9.412320137,1.365763783,-1.400432706,0.487554103, 
180,226824420,0.907491267,-0.810155809,-43.8312645,-0.09253785,-0.097571887,9.411746979,1.254649401,-1.255968451,0.457457483, 
181,226832753,0.910670817,-0.813203454,-43.81181335,-0.097490005,-0.067983977,9.367046356,1.248566031,-1.248898983,0.390207291, 
182,226841086,0.921336472,-0.823783159,-43.80725861,-0.097574763,-0.084248126,9.430098534,1.324883342,-1.299051523,0.456996322, 
183,226849419,0.925085008,-0.826923907,-43.7866478,-0.100580968,-0.076201461,9.395251274,1.265663266,-1.199463248,0.503819227, 
184,226857752,0.935859919,-0.837900281,-43.78207779,-0.088206597,-0.080360755,9.391435623,1.339329958,-1.348358989,0.457611144, 
185,226866085,0.940002739,-0.841038704,-43.76059723,-0.10302683,-0.083793238,9.390422821,1.377828002,-1.269646406,0.471903861, 
186,226874418,0.950533986,-0.851863444,-43.75630951,-0.089834839,-0.08712735,9.403061867,1.312588573,-1.33078742,0.421725541, 
187,226882751,0.954396963,-0.855420828,-43.73634338,-0.080021925,-0.086525589,9.421186447,1.292507052,-1.269134164,0.376695752, 
188,226891084,0.96403265,-0.866464794,-43.73170471,-0.111750446,-0.072350837,9.401825905,1.206520081,-1.357272625,0.460198134, 
189,226899417,0.967337906,-0.869838476,-43.71080017,-0.097341217,-0.07277336,9.397794724,1.292532682,-1.309860706,0.484019399, 
190,226907750,0.977785051,-0.880727708,-43.70537186,-0.105854213,-0.082842402,9.422482491,1.306774139,-1.33816433,0.554791451, 
191,226916083,0.980613589,-0.884480178,-43.68401718,-0.112414092,-0.089309938,9.443306923,1.208799839,-1.327355266,0.484224349, 
192,226924416,0.991074145,-0.895554781,-43.67807388,-0.104105473,-0.088492326,9.375279427,1.310949326,-1.361780763,0.610912323, 
193,226932749,0.994376838,-0.89816457,-43.65686035,-0.106471814,-0.08704,9.410329819,1.359974861,-1.288959503,0.487297982, 
194,226941082,1.005378962,-0.908487856,-43.65253067,-0.104028702,-0.100761235,9.385268211,1.375112772,-1.275691271,0.412965477, 
195,226949415,1.008976817,-0.912002742,-43.63182449,-0.088759162,-0.091218151,9.399163246,1.299704671,-1.299589396,0.424645573, 
196,226957748,1.018522024,-0.92335397,-43.62734222,-0.091096185,-0.075567037,9.428173065,1.200731397,-1.400484085,0.430075824, 
197,226966081,1.02289629,-0.927622437,-43.60686111,-0.105056413,-0.089146905,9.407382965,1.399984479,-1.392902017,0.468804508, 
198,226974414,1.033252239,-0.9381423,-43.60241699,-0.097555719,-0.081799828,9.405179024,1.299704671,-1.302868009,0.424696833, 
199,226982747,1.036564112,-0.940555453,-43.58047485,-0.085990839,-0.093831815,9.429190636,1.349114537,-1.246030092,0.499772161, 
200,226991080,1.046792626,-0.950959265,-43.57587814,-0.095642433,-0.079679996,9.412689209,1.285309553,-1.289420605,0.437888175, 
201,226999413,1.049715996,-0.953919053,-43.55448532,-0.092849836,-0.067866609,9.436133385,1.306582093,-1.315713644,0.444509417, 
202,227007746,1.060059428,-0.964955986,-43.54965973,-0.100468472,-0.075285055,9.433216095,1.301651239,-1.367748976,0.463681638, 
203,227016079,1.062895536,-0.967772603,-43.52759552,-0.085839011,-0.088130653,9.391142845,1.326497078,-1.325357318,0.544340909, 
204,227024412,1.072862387,-0.977496028,-43.52267075,-0.073306352,-0.07580328,9.425188065,1.258542776,-1.211604595,0.468010545, 
205,227032745,1.07568562,-0.979849458,-43.5009613,-0.081327222,-0.088905409,9.41884613,1.294863701,-1.242572188,0.489244699, 
206,227041078,1.086260915,-0.99071306,-43.496521,-0.105780162,-0.067485005,9.39896965,1.333515525,-1.349383473,0.410224795, 
207,227049411,1.089282036,-0.992476881,-43.47465897,-0.083435558,-0.076240323,9.413286209,1.355543733,-1.207224369,0.475822836, 
208,227057744,1.099514484,-1.002816319,-43.47015762,-0.086290523,-0.078884862,9.437508583,1.29463315,-1.286808014,0.41140306, 
209,227066077,1.103127718,-1.00579381,-43.44895172,-0.092217006,-0.073680192,9.430375099,1.387945652,-1.313702822,0.493727177, 
210,227074410,1.113657713,-1.017128706,-43.4444313,-0.100176066,-0.079614922,9.4164505,1.331581593,-1.408372998,0.414771259, 
211,227082743,1.116470575,-1.019070864,-43.42245865,-0.091917709,-0.10033147,9.402461052,1.37997973,-1.279251814,0.491524428, 
212,227091076,1.126664519,-1.030181527,-43.41792679,-0.087823406,-0.080103993,9.405333519,1.293967128,-1.38355279,0.411761582, 
213,227099409,1.130233526,-1.033473849,-43.39683151,-0.076821268,-0.081980199,9.408801079,1.407028317,-1.37146306,0.483020425, 
214,227107742,1.140141249,-1.04378593,-43.39167786,-0.083602548,-0.081298426,9.418416023,1.261641979,-1.288421869,0.480996966, 
215,227116075,1.143629074,-1.046397924,-43.37065506,-0.091739193,-0.112481259,9.416547775,1.400240541,-1.295158148,0.443856239, 
216,227124408,1.154167175,-1.056805849,-43.36497498,-0.078970432,-0.07288865,9.401719093,1.341532707,-1.299307704,0.540268242, 
217,227132741,1.156264544,-1.058818936,-43.34402466,-0.094131328,-0.080294125,9.391860008,1.269710422,-1.260988712,0.385174036, 
218,227141074,1.166628122,-1.068862677,-43.33922577,-0.122328468,-0.087682687,9.426556587,1.31988883,-1.26039958,0.431689501, 
219,227149407,1.16986239,-1.071440101,-43.31698608,-0.109610982,-0.057130069,9.417578697,1.35989809,-1.271439314,0.544238448, 
220,227157740,1.180726528,-1.081553221,-43.31150436,-0.099346183,-0.055952474,9.446611404,1.3838346,-1.269057274,0.510901511, 
221,227166073,1.183290601,-1.083709717,-43.29006577,-0.108505249,-0.057505604,9.405083656,1.357644081,-1.309476495,0.374518514, 
222,227174406,1.193026066,-1.093742371,-43.2845726,-0.083060227,-0.068836294,9.40464592,1.249385357,-1.259925723,0.507008135, 
223,227182739,1.196311831,-1.095344305,-43.26304245,-0.110727757,-0.066542208,9.407751083,1.46330297,-1.264062643,0.466422409, 
224,227191072,1.207605958,-1.105811119,-43.25804901,-0.096291341,-0.068526953,9.405569077,1.43781662,-1.315239668,0.443472058, 
225,227199405,1.209705114,-1.108620763,-43.2359848,-0.099815182,-0.075509645,9.409897804,1.269659281,-1.353891611,0.492215991, 
226,227207738,1.220057249,-1.117964149,-43.23078537,-0.100317881,-0.07218945,9.398962021,1.327765107,-1.182775617,0.462669909, 
227,227216071,1.222823143,-1.119977593,-43.20917892,-0.085486636,-0.054032452,9.401368141,1.359629154,-1.275140643,0.377041519, 
228,227224404,1.233233094,-1.130107641,-43.20362473,-0.099308982,-0.087074906,9.436629295,1.337831378,-1.277036071,0.505496919, 
229,227232737,1.235139132,-1.132658124,-43.18046188,-0.076368287,-0.097294547,9.421586037,1.248757958,-1.324025273,0.574104607, 
230,227241070,1.245919943,-1.142912507,-43.17483139,-0.077771381,-0.089547537,9.390283585,1.383719444,-1.295363069,0.509787321, 
231,227249403,1.248048186,-1.14452374,-43.15399551,-0.079033703,-0.065376475,9.394980431,1.368030787,-1.309181929,0.400581032, 
232,227257736,1.259144306,-1.155264258,-43.14925003,-0.097529382,-0.086736508,9.402452469,1.423459768,-1.357144594,0.402066648, 
233,227266069,1.26152122,-1.157528758,-43.12670135,-0.096125402,-0.076256424,9.387458801,1.299807191,-1.28355515,0.493368626, 
234,227274402,1.271701813,-1.167767406,-43.12125778,-0.084165499,-0.100594491,9.421222687,1.315867066,-1.297079206,0.48186776, 
235,227282735,1.274319887,-1.170119047,-43.09951019,-0.094833754,-0.074771233,9.420748711,1.34336412,-1.310744524,0.396252215, 
236,227291068,1.284197688,-1.18010366,-43.09422684,-0.09871532,-0.076639168,9.417545319,1.282696962,-1.269518375,0.455741286, 
237,227299401,1.286304712,-1.181541681,-43.0720787,-0.097336732,-0.087767221,9.416337013,1.371680617,-1.290983081,0.409917414, 
238,227307734,1.29601872,-1.192382216,-43.06694412,-0.095547296,-0.069854148,9.408294678,1.263409257,-1.373179078,0.437222153, 
239,227316067,-0.450689495,0.615906239,-43.80347061,-0.090669185,-0.079536982,9.399539948,1.339816689,-1.351714373,0.39890328, 
240,227324400,-0.440058649,0.605933011,-43.79811859,-0.084771998,-0.077278838,9.408551216,1.355594993,-1.290624499,0.421751231, 
241,227332733,-0.44033885,0.605844319,-43.8095665,-0.08807154,-0.094830029,9.424391747,1.263614416,-1.286731243,0.556635797, 
242,227341066,-0.439140677,0.605977893,-43.80971527,-0.084481552,-0.071296297,9.419644356,1.457872629,-1.292519927,0.447288603, 
243,227349399,-0.438029736,0.606133997,-43.82090378,-0.079788931,-0.055624776,9.43725872,1.432309628,-1.254252076,0.392883897, 
244,227357732,-0.437364459,0.606825769,-43.82117081,-0.080809295,-0.047319595,9.415092468,1.394195557,-1.225051999,0.435710937, 
245,227366065,-0.43682,0.605994046,-43.83244324,-0.099190548,-0.055980027,9.420230865,1.36461103,-1.37125802,0.415245146, 
246,227374398,-0.436410248,0.606180668,-43.83264542,-0.08685156,-0.058311746,9.410795212,1.362664342,-1.286987185,0.441192359, 
247,227382731,-0.436450958,0.606287777,-43.84329605,-0.102463961,-0.062449921,9.432136536,1.292660594,-1.261501074,0.453717738, 
248,227391064,-0.437232018,0.606568098,-43.84373474,-0.100709267,-0.053536497,9.42815876,1.219417095,-1.274999857,0.413157642, 
249,227399397,-0.43733409,0.60571146,-43.85458755,-0.104958132,-0.084692456,9.431875229,1.286334038,-1.376688123,0.435301095, 
250,227407730,-0.437565118,0.605935454,-43.85442734,-0.098090738,-0.063616216,9.414216995,1.285001993,-1.282043576,0.483891308, 
251,227416063,-0.437583327,0.60559386,-43.86387634,-0.086718529,-0.070572607,9.427049637,1.295811296,-1.315367937,0.466448039, 
252,227424396,-0.437838525,0.605203569,-43.86428452,-0.092353873,-0.083222501,9.429969788,1.284438491,-1.355863929,0.416833282, 
253,227432729,-0.438109607,0.604888201,-43.87529755,-0.083677411,-0.080265172,9.41860199,1.265791416,-1.312370896,0.44408679, 
254,227441062,-0.437907696,0.605796814,-43.87516785,-0.091883324,-0.08078517,9.404548645,1.336627603,-1.200526476,0.482290387, 
255,227449395,-0.437601805,0.606140077,-43.88432312,-0.100197025,-0.074196659,9.425032616,1.334373474,-1.236860037,0.604649603, 
256,227457728,-0.437690407,0.606324017,-43.884758,-0.090540551,-0.068375602,9.396944046,1.303021669,-1.285591245,0.414720058, 
257,227466061,-0.437604725,0.606405973,-43.89514542,-0.087767117,-0.090729445,9.427495003,1.310936451,-1.268045425,0.463284642, 
258,227474394,-0.437948108,0.606693387,-43.89471054,-0.081967376,-0.070653111,9.428249359,1.271260142,-1.27455163,0.518560171, 
259,227482727,-0.437422156,0.607145488,-43.90433121,-0.097717285,-0.082071647,9.415121078,1.36496973,-1.224719048,0.510069013, 
260,227491060,-0.437997997,0.607627153,-43.90513611,-0.093843296,-0.096236907,9.388316154,1.244813323,-1.250128388,0.370983779, 
261,227499393,-0.438336492,0.607084632,-43.91569138,-0.115515411,-0.095557868,9.398761749,1.260309935,-1.342211604,0.431971222, 
262,227507726,-0.437515527,0.607494652,-43.91490555,-0.105496898,-0.073093817,9.412008286,1.410268307,-1.261552215,0.560695529, 
263,227516059,-0.436573058,0.607491255,-43.92457581,-0.106901273,-0.074175544,9.423374176,1.417863131,-1.281761885,0.478973359, 
264,227524392,-0.437269062,0.607713103,-43.92483139,-0.096130706,-0.096115373,9.389302254,1.229726791,-1.281224132,0.434507102, 
265,227532725,-0.437232584,0.607761443,-43.93449402,-0.100235,-0.067596346,9.410290718,1.306748748,-1.27551198,0.493112445, 
266,227541058,-0.437713832,0.608246863,-43.93416595,-0.097819656,-0.077732667,9.427423477,1.254841447,-1.250102758,0.505266368, 
267,227549391,-0.437317789,0.608361304,-43.94367218,-0.105680257,-0.077960037,9.422531128,1.352150083,-1.269979477,0.532827318, 
268,227557724,-0.438012928,0.608397484,-43.94355774,-0.099154666,-0.087861277,9.410072327,1.22900939,-1.30309844,0.477795064, 
269,227566057,-0.438179821,0.608211517,-43.95259857,-0.109309152,-0.079600073,9.426916122,1.284630537,-1.305467725,0.533851862, 
270,227574390,-0.438098609,0.608255327,-43.95281601,-0.085354671,-0.06187208,9.388236046,1.323192954,-1.303354621,0.439296901, 
271,227582723,-0.438910723,0.608623445,-43.96212769,-0.102104947,-0.070715673,9.422860146,1.207403898,-1.23821795,0.506214142, 
272,227591056,-0.439863324,0.609171808,-43.96209335,-0.113021031,-0.066883937,9.390388489,1.198285103,-1.242303252,0.472095996, 
273,227599389,-0.439515054,0.609189987,-43.97101212,-0.101423591,-0.093298502,9.418899536,1.347411394,-1.282837868,0.543098629, 
274,227607722,-0.439875543,0.609273553,-43.97060776,-0.079298042,-0.07009472,9.447947502,1.2694031,-1.299282074,0.5143978, 
275,227616055,-0.440511316,0.609280527,-43.97983932,-0.089192092,-0.077864639,9.403196335,1.2289325,-1.285399079,0.528229535, 
276,227624388,-0.440122277,0.608190298,-43.97976303,-0.091453254,-0.085452117,9.402079582,1.360538483,-1.439033151,0.473056495, 
277,227632721,-0.440308958,0.608076334,-43.98890686,-0.073099017,-0.064115547,9.425922394,1.283260345,-1.297079206,0.477923125, 
278,227641054,-0.440524936,0.608364582,-43.98828506,-0.088037655,-0.074818544,9.427514076,1.28684628,-1.275742531,0.542829692, 
279,227649387,-0.440914959,0.608848929,-43.99646759,-0.094841003,-0.06326931,9.434832573,1.258824587,-1.22528255,0.519264579, 
280,227657720,-0.440794677,0.607879043,-43.9962616,-0.117158175,-0.081204847,9.405981064,1.328315854,-1.425227284,0.489987493, 
281,227666053,-0.441372633,0.607662618,-44.00479889,-0.103659824,-0.079004586,9.414578438,1.23669374,-1.310372949,0.458200246, 
282,227674386,-0.442020327,0.607907414,-44.00465012,-0.088453956,-0.058966428,9.418393135,1.236002088,-1.278560042,0.48197028, 
283,227682719,-0.441677302,0.607894182,-44.014431,-0.10505832,-0.074850775,9.392825127,1.348960757,-1.288037419,0.415142655, 
284,227691052,-0.441720814,0.607751012,-44.01461029,-0.111588992,-0.082827613,9.412219048,1.308387876,-1.324563146,0.445162565, 
285,227699385,-0.441512495,0.607584119,-44.02352142,-0.094860256,-0.077373698,9.449789047,1.331927299,-1.308016419,0.458840579, 
286,227707718,-0.441505134,0.606922269,-44.02296829,-0.080407672,-0.068898812,9.410180092,1.313433886,-1.387856007,0.53207171, 
287,227716051,-0.442340404,0.607127845,-44.03203201,-0.092727706,-0.075385764,9.385773659,1.206917048,-1.260053873,0.429781228, 
288,227724384,-0.441989154,0.606565356,-44.03147888,-0.101576798,-0.080251053,9.399577141,1.354608774,-1.376803398,0.532340646, 
289,227732717,-0.44239831,0.606915891,-44.04114151,-0.078096755,-0.080932684,9.391222,1.259733677,-1.245633006,0.436107963, 
290,227741050,-0.442680746,0.606190383,-44.04072571,-0.090786241,-0.091351651,9.401903152,1.278483152,-1.396219015,0.515255928, 
291,227749383,-0.442684859,0.605773151,-44.04993439,-0.097726129,-0.072865568,9.401508331,1.30822134,-1.339470625,0.442306608, 
292,227757716,-0.442791313,0.605286002,-44.05007553,-0.082959957,-0.069408134,9.435616493,1.301574469,-1.367108345,0.449824363, 
293,227766049,-0.442148626,0.605392396,-44.05910492,-0.086234152,-0.093950041,9.420870781,1.386075974,-1.274513245,0.446494579, 
294,227774382,-0.442649454,0.605481088,-44.05823135,-0.093327023,-0.073811188,9.385492325,1.25154984,-1.299205065,0.570749164, 
295,227782715,-0.442911297,0.605467916,-44.06792068,-0.089943253,-0.070474483,9.412901878,1.27815032,-1.286180377,0.403936446, 
296,227791048,-0.442702621,0.604803801,-44.06758881,-0.077416755,-0.07456746,9.41262722,1.339035392,-1.388906121,0.505215168, 
297,227799381,-0.44289884,0.604876101,-44.07590103,-0.077431671,-0.079892993,9.413187027,1.285155773,-1.280916691,0.475771606, 
298,227807714,-0.443064153,0.605055749,-44.07624435,-0.101655461,-0.076138444,9.407253265,1.293518901,-1.285796404,0.424812138, 
299,227816047,-0.44389385,0.604978859,-44.08462906,-0.087245896,-0.074897215,9.402909279,1.210003614,-1.297745109,0.491549939, 
300,227824380,-0.444306612,0.604851902,-44.08510971,-0.095146298,-0.082470596,9.398519516,1.264741182,-1.323743582,0.407048583, 
301,227832713,-0.444485337,0.6040923,-44.09342957,-0.090143681,-0.072296038,9.419917107,1.287794113,-1.379121661,0.486708879, 
302,227841046,-0.44536376,0.604655325,-44.09369278,-0.09380693,-0.090136684,9.425102234,1.208966374,-1.240369558,0.434135705, 
303,227849379,-0.445753157,0.604299068,-44.10235596,-0.08741615,-0.071465619,9.405489922,1.263972998,-1.331018329,0.440090984, 
304,227857712,-0.445507556,0.603671849,-44.10221863,-0.090066716,-0.073999487,9.395004272,1.341711998,-1.384782314,0.480433375, 
305,227866045,-0.445696503,0.60219717,-44.11037445,-0.096731991,-0.07331761,9.404789925,1.288511157,-1.462880135,0.428462088, 
306,227874378,-0.446836501,0.601997435,-44.11018753,-0.115136929,-0.067752406,9.429714203,1.176756382,-1.333656311,0.487041861, 
307,227882711,-0.447730809,0.601937294,-44.11791229,-0.087073669,-0.058826443,9.436940193,1.202345014,-1.297258735,0.506534338, 
308,227891044,-0.447258383,0.60220468,-44.11746216,-0.104935348,-0.068696268,9.391028404,1.368632555,-1.277305007,0.519085288, 
309,227899377,-0.447546989,0.60222578,-44.12548447,-0.086327359,-0.063296556,9.393529892,1.27672863,-1.284476995,0.410480887, 
310,227907710,-0.447712988,0.601880312,-44.12569427,-0.10178262,-0.065546617,9.383803368,1.293326855,-1.349460602,0.439783633, 
311,227916043,-0.447897941,0.602231324,-44.13377762,-0.086838573,-0.065411679,9.419902802,1.28813982,-1.247425914,0.448402792, 
312,227924376,-0.448185652,0.602635145,-44.13401794,-0.08662729,-0.074087813,9.398580551,1.279482007,-1.260770917,0.437567949, 
313,227932709,-0.448651612,0.602963865,-44.14248276,-0.088941731,-0.07080391,9.422657967,1.254290581,-1.251357794,0.46921435, 
314,227941042,-0.448586881,0.601487279,-44.14230347,-0.094284795,-0.090365238,9.406006813,1.321195006,-1.486214757,0.485786766, 
315,227949375,-0.449307561,0.600954771,-44.15097046,-0.084182017,-0.082620308,9.38314724,1.225116134,-1.351381421,0.353309959, 
316,227957708,-0.449620485,0.60097003,-44.1516571,-0.066552937,-0.085406512,9.404531479,1.275806665,-1.306684732,0.384892315, 
317,227966041,-0.449240595,0.601057053,-44.15974808,-0.090448357,-0.083033837,9.406100273,1.357618451,-1.280122638,0.422647655, 
318,227974374,-0.450129122,0.601045728,-44.15886307,-0.097745545,-0.090061404,9.379658699,1.204265952,-1.311704993,0.571030915, 
319,227982707,-0.450933784,0.601326823,-44.16674042,-0.083505914,-0.074555106,9.427715302,1.215023994,-1.255763531,0.419676423, 
320,227991040,-0.450809717,0.602259934,-44.16666794,-0.105997123,-0.065409571,9.421442986,1.328981757,-1.196235895,0.475054443, 
321,227999373,-0.450609684,0.602045596,-44.17387009,-0.088793635,-0.063174471,9.405753136,1.333874106,-1.316443443,0.516344547, 
322,228007706,-0.450301468,0.60226953,-44.17345047,-0.085394613,-0.088425539,9.412859917,1.350651383,-1.282197237,0.516395748, 
323,228016039,-0.450816303,0.602559149,-44.18097305,-0.084628627,-0.055323821,9.412884712,1.248245716,-1.255789042,0.48432675, 
324,228024372,-0.450510532,0.602701902,-44.18097687,-0.110702015,-0.067578845,9.415507317,1.350651383,-1.291956306,0.465858877, 
325,228032705,-0.451561421,0.60207212,-44.18903732,-0.092844561,-0.064934514,9.405304909,1.185465097,-1.364265323,0.404333502, 
326,228041038,-0.452192634,0.601589262,-44.18878937,-0.087963313,-0.06751968,9.398036003,1.237564683,-1.366903543,0.496339887, 
327,228049371,-0.453409195,0.601867855,-44.19562912,-0.097302929,-0.090842031,9.404022217,1.163692951,-1.257402778,0.560836434, 
328,228057704,-0.45409885,0.601932645,-44.19520187,-0.09075103,-0.068455279,9.415311813,1.229124546,-1.302163601,0.517535627, 
329,228066037,-0.454081237,0.602251053,-44.20207596,-0.106325611,-0.067103773,9.403603554,1.31324172,-1.2540344,0.513386071, 
330,228074370,-0.454422086,0.602442384,-44.20141983,-0.083616644,-0.08466588,9.423716545,1.271183133,-1.285437584,0.543610811, 
331,228082703,-0.454548031,0.602255046,-44.20824814,-0.094920151,-0.090043768,9.423204422,1.29605484,-1.314637899,0.510952771, 
332,228091036,-0.454613447,0.601646304,-44.20858383,-0.106721953,-0.078050271,9.406917572,1.305672765,-1.381529331,0.424107701, 
333,228099369,-0.454400331,0.601207376,-44.21637726,-0.102783322,-0.079582907,9.412546158,1.337114215,-1.342710972,0.469483316, 
334,228107702,-0.454784572,0.599669158,-44.21580124,-0.09412659,-0.069659844,9.400575638,1.26689291,-1.494104028,0.533992708, 
335,228116035,-0.455244005,0.599203229,-44.2230072,-0.090768889,-0.066560119,9.391263008,1.25664711,-1.3483845,0.468958169, 
336,228124368,-0.455789477,0.598798215,-44.22257614,-0.092171893,-0.060764641,9.396763802,1.24660635,-1.358220339,0.51716423, 
337,228132701,-0.455684066,0.599153042,-44.2303772,-0.086701252,-0.069749996,9.400925636,1.325395823,-1.248796463,0.427411914, 
338,228141034,-0.4567132,0.599725306,-44.22966385,-0.094516896,-0.059227094,9.419402122,1.188359499,-1.241573095,0.551436007, 
339,228149367,-0.456675678,0.600040555,-44.23607635,-0.09447892,-0.07517533,9.402288437,1.316174746,-1.254559636,0.500105202, 
340,228157700,-0.457303792,0.600001097,-44.23585129,-0.095669456,-0.087011628,9.418104172,1.236488938,-1.314599514,0.493163735, 
341,228166033,-0.457572728,0.599722326,-44.24284363,-0.105908059,-0.075268656,9.427474022,1.278931737,-1.325101376,0.488809258, 
342,228174366,-0.457430273,0.600149572,-44.24249268,-0.105774663,-0.082175702,9.406108856,1.329609275,-1.257799745,0.507930279, 
343,228182699,-0.457404971,0.60014677,-44.24964142,-0.088971868,-0.091067955,9.387461662,1.316776514,-1.291380048,0.37983346, 
344,228191032,-0.45813483,0.599702001,-44.24954605,-0.082825661,-0.067323126,9.417019844,1.224027395,-1.36253643,0.478781283, 
345,228199365,-0.458611995,0.600470245,-44.25624466,-0.09519989,-0.073663421,9.400149345,1.254354596,-1.203177452,0.544763505, 
346,228207698,-0.459347636,0.600993037,-44.25667572,-0.090117462,-0.074067265,9.423997879,1.224872708,-1.244928598,0.41251725, 
347,228216031,-0.459037006,0.60071969,-44.26369095,-0.085569747,-0.069651723,9.412606239,1.350292802,-1.326843023,0.461965501, 
348,228224364,-0.459303558,0.600411773,-44.26395035,-0.08911179,-0.081917375,9.419454575,1.28187716,-1.345028996,0.435275435, 
349,228232697,-0.459763557,0.59913826,-44.27113342,-0.092983775,-0.080359541,9.41619873,1.256877661,-1.445693016,0.45917356, 
350,228241030,-0.460095912,0.598717928,-44.2714119,-0.102250166,-0.080314443,9.41344738,1.273475647,-1.358143449,0.432739675, 
351,228249363,-0.459829897,0.598122358,-44.27769089,-0.079963215,-0.080477573,9.41954422,1.342506051,-1.365366817,0.535708845, 
352,228257696,-0.459989667,0.597737432,-44.27732086,-0.095060468,-0.082316957,9.413646698,1.294172049,-1.355787158,0.510735095, 
353,228266029,-0.460474432,0.598137736,-44.28394699,-0.10172236,-0.076093964,9.393749237,1.253727078,-1.244467497,0.488655537, 
354,228274362,-0.460900038,0.598159969,-44.28391266,-0.096869692,-0.085738249,9.390623093,1.260591626,-1.307529807,0.470879287, 
355,228282695,-0.461566627,0.59882009,-44.29124451,-0.08664836,-0.07234668,9.374598503,1.233287096,-1.214217305,0.453845859, 
356,228291028,-0.461718291,0.598460436,-44.29071045,-0.082676739,-0.06673222,9.381533623,1.294940352,-1.351868033,0.530304253, 
357,228299361,-0.462004125,0.598295629,-44.29756927,-0.077790968,-0.079834081,9.432033539,1.277164221,-1.31575191,0.477154732, 
358,228307694,-0.461980611,0.59920609,-44.29740906,-0.084022216,-0.085567437,9.42577076,1.316661477,-1.199360967,0.486606479, 
359,228316027,-0.461759895,0.599022031,-44.30448914,-0.101930745,-0.081053726,9.406752586,1.33958602,-1.314855456,0.383099288, 
360,228324360,-0.463104755,0.598525643,-44.3044014,-0.084483072,-0.073495269,9.416349411,1.151756883,-1.368414879,0.47677058, 
361,228332693,-0.462958992,0.598212302,-44.31156921,-0.101004668,-0.094566576,9.400810242,1.32987833,-1.332478166,0.487426102, 
362,228341026,-0.463733077,0.597299278,-44.3116951,-0.086117297,-0.076896392,9.422757149,1.219199181,-1.417773366,0.449901193, 
363,228349359,-0.464672565,0.597667098,-44.31852722,-0.095375367,-0.089328848,9.39880085,1.201550841,-1.250128269,0.449619472, 
364,228357692,-0.465284377,0.59753561,-44.31860352,-0.096669659,-0.06551937,9.426949501,1.238614678,-1.324255824,0.455818117, 
365,228366025,-0.465426236,0.597535014,-44.32520294,-0.100895546,-0.071285583,9.396644592,1.296259642,-1.294044018,0.449504256, 
366,228374358,-0.46558845,0.59733355,-44.3252449,-0.109528437,-0.066914611,9.404598236,1.294581771,-1.332964659,0.462375373, 
367,228382691,-0.465048105,0.597229123,-44.33172226,-0.099208221,-0.071208969,9.424674988,1.378570914,-1.306146622,0.414194971, 
368,228391024,-0.466018319,0.596909404,-44.33150864,-0.097772777,-0.075257838,9.419641495,1.195352316,-1.348691702,0.492728204, 
369,228399357,-0.466335386,0.59679085,-44.33864594,-0.100159295,-0.07928472,9.414863586,1.276190996,-1.307171464,0.396495581, 
370,228407690,-0.46607855,0.596876919,-44.33834457,-0.097578384,-0.07850299,9.402002335,1.344094157,-1.299282074,0.503767967, 
371,228416023,-0.46598193,0.596856236,-44.34413147,-0.094845429,-0.075746834,9.414791107,1.323705196,-1.298154831,0.483122885, 
372,228424356,-0.466626674,0.596388996,-44.34371185,-0.110099405,-0.074188963,9.406867981,1.235387325,-1.364803314,0.516549468, 
373,228432689,-0.466632247,0.595366955,-44.35037231,-0.093766876,-0.076593421,9.406135559,1.312435031,-1.417748094,0.486145377, 
374,228441022,-0.466843903,0.595513284,-44.35012054,-0.100976743,-0.052993223,9.423707008,1.286526084,-1.292353272,0.49576351, 
375,228449355,-0.466635972,0.596102715,-44.35629272,-0.088759258,-0.087597378,9.431077957,1.33702457,-1.225333691,0.506303668, 
376,228457688,-0.467219204,0.596375346,-44.35509491,-0.089352153,-0.089893855,9.400285721,1.2416116,-1.277817369,0.6101439, 
377,228466021,-0.466968298,0.595868945,-44.36149216,-0.089634426,-0.100708582,9.454719543,1.343479395,-1.355197906,0.504177809, 
378,228474354,-0.46611473,0.596471071,-44.36159515,-0.078032918,-0.057356261,9.395851135,1.415429711,-1.236424565,0.454588622, 
379,228482687,-0.466243714,0.596888423,-44.3674469,-0.08595898,-0.080749832,9.398410797,1.297296882,-1.246209383,0.505227983, 
380,228491020,-0.46604985,0.59689343,-44.3671608,-0.096135922,-0.083071664,9.414341927,1.335756779,-1.307696462,0.499477595, 
381,228499353,-0.46599558,0.595986187,-44.37379456,-0.087104611,-0.079884775,9.386128426,1.32097733,-1.404735804,0.398506254, 
382,228507686,-0.466365486,0.596166253,-44.37385559,-0.104987718,-0.078898937,9.417154312,1.268788218,-1.288652182,0.456919491, 
383,228516019,-0.466544718,0.596218944,-44.37963867,-0.101227902,-0.068090707,9.416378975,1.291636229,-1.289113164,0.497133881, 
384,228524352,-0.467620909,0.595760703,-44.37903976,-0.097888447,-0.08643122,9.419591904,1.182135463,-1.365008235,0.538424015, 
385,228532685,-0.467824906,0.595724165,-44.38408661,-0.088970616,-0.069024116,9.410591125,1.288729072,-1.300114512,0.51074791, 
386,228541018,-0.468241751,0.595760167,-44.38357544,-0.070567295,-0.065791734,9.411100388,1.262922645,-1.305839181,0.525078952, 
387,228549351,-0.468139887,0.595245481,-44.38921738,-0.105136439,-0.075347878,9.396273613,1.325293303,-1.35847652,0.455766886, 
388,228557684,-0.468499333,0.595994353,-44.38969421,-0.094074771,-0.075357735,9.421550751,1.269684792,-1.218238473,0.409942985, 
389,228566017,-0.468976706,0.596260846,-44.39623642,-0.0944589,-0.066712916,9.415692329,1.257697225,-1.263934374,0.369395673, 
390,228574350,-0.468195319,0.595883787,-44.39593506,-0.087963879,-0.087169506,9.416971207,1.405926824,-1.354583144,0.50187248, 
391,228582683,-0.468625635,0.596077979,-44.40211487,-0.087453745,-0.082987502,9.420642853,1.261565208,-1.273155451,0.431996852, 
392,228591016,-0.469021142,0.595917761,-44.40264893,-0.096029177,-0.076888695,9.378791809,1.266329288,-1.326894283,0.402642936, 
393,228599349,-0.468732238,0.595847011,-44.40790176,-0.062483508,-0.080628924,9.389672279,1.347385526,-1.304725051,0.541638553, 
394,228607682,-0.469915479,0.595498383,-44.407444,-0.099350259,-0.095963925,9.417899132,1.170365572,-1.35234189,0.522146165, 
395,228616015,-0.470015675,0.595765233,-44.41371536,-0.08322899,-0.080613166,9.408445358,1.301087976,-1.26557374,0.474542171, 
396,228624348,-0.470569402,0.596114933,-44.4142952,-0.089467056,-0.075747527,9.397816658,1.247233748,-1.266188383,0.396200985, 
397,228632681,-0.470167965,0.596690774,-44.41953659,-0.095839716,-0.07082922,9.412959099,1.362229109,-1.227177978,0.470776826, 
398,228641014,-0.471596807,0.596969247,-44.41980743,-0.091699407,-0.061640896,9.366214752,1.141831279,-1.274871707,0.433392853, 
399,228649347,-0.471423179,0.596639872,-44.42562866,-0.104798853,-0.052493021,9.412857056,1.333912611,-1.33738327,0.456343234, 
400,228657680,-0.471882731,0.596832514,-44.42564774,-0.104152448,-0.073213957,9.405487061,1.259413481,-1.285194278,0.463784158, 
401,228666013,-0.471467465,0.596846402,-44.43234634,-0.111488149,-0.083548367,9.41265583,1.362690091,-1.294799566,0.378053308, 
402,228674346,-0.472203374,0.597109258,-44.43245316,-0.113775589,-0.080299728,9.405553818,1.224693418,-1.276907921,0.453295112, 
403,228682679,-0.472509891,0.597620249,-44.43769073,-0.094438016,-0.051122822,9.433420181,1.277509928,-1.236847281,0.489155054, 
404,228691012,-0.471996605,0.597531557,-44.43750381,-0.103205524,-0.077128574,9.405062675,1.373191953,-1.320285678,0.488629937, 
405,228699345,-0.472218424,0.597655535,-44.4436264,-0.10514468,-0.082389288,9.405945778,1.287922025,-1.281813025,0.434635103, 
406,228707678,-0.472770393,0.597515941,-44.44343185,-0.112793289,-0.075393766,9.376840591,1.246759892,-1.325126767,0.488860458, 
407,228716011,-0.47372219,0.597039998,-44.44970703,-0.088089183,-0.087667353,9.416680336,1.198810339,-1.355556726,0.44915846, 
408,228724344,-0.473856866,0.596425891,-44.45014954,-0.100546449,-0.065585233,9.438372612,1.297245622,-1.382963657,0.413580239, 
409,228732677,-0.474364817,0.596313894,-44.45615005,-0.091973029,-0.078885071,9.411416054,1.252369523,-1.311602473,0.374800324, 
410,228741010,-0.474811018,0.597023726,-44.45716858,-0.103278302,-0.089432806,9.413437843,1.260719776,-1.22251606,0.346368462, 
411,228749343,-0.474783003,0.597420394,-44.46240997,-0.089703768,-0.085315116,9.425228119,1.317045569,-1.25043571,0.493009955, 
412,228757676,-0.474489927,0.597724557,-44.46235275,-0.103863433,-0.077100925,9.431550026,1.347154975,-1.271362424,0.47294119, 
413,228766009,-0.474421382,0.597406864,-44.46746445,-0.112185076,-0.077785589,9.397582054,1.322322011,-1.337626338,0.491293818, 
414,228774342,-0.474658996,0.597335815,-44.4671402,-0.085253812,-0.070008822,9.433821678,1.283772707,-1.316853523,0.505176783, 
415,228782675,-0.474373877,0.597987473,-44.47161484,-0.095634766,-0.083215222,9.40284729,1.34597683,-1.220812798,0.548170209, 
416,228791008,-0.474533439,0.59839201,-44.47119904,-0.097427756,-0.072202578,9.424546242,1.294850826,-1.260796666,0.5156914, 
417,228799341,-0.474716127,0.597711563,-44.47706985,-0.095378585,-0.068504423,9.40412426,1.290509224,-1.3815552,0.450029314, 
418,228807674,-0.475161552,0.597045481,-44.4767189,-0.098065026,-0.094195053,9.426974297,1.259874463,-1.38870132,0.507379532, 
419,228816007,-0.475086629,0.597438097,-44.48112869,-0.110603154,-0.086339712,9.405595779,1.321182251,-1.251447439,0.471506804, 
420,228824340,-0.475095421,0.597679794,-44.48075867,-0.096956752,-0.080404133,9.415392876,1.312511921,-1.280942321,0.510837555, 
421,228832673,-0.475095421,0.597627938,-44.48527908,-0.099808678,-0.066931777,9.422243118,1.313024044,-1.306351542,0.533173084, 
422,228841006,-0.47526741,0.597377479,-44.48524857,-0.098035119,-0.081236154,9.405128479,1.292020321,-1.338087559,0.471263468, 
423,228849339,-0.474962026,0.597416401,-44.49110794,-0.092938907,-0.063826866,9.394416809,1.349447489,-1.295286179,0.45407632, 
424,228857672,-0.475908816,0.597614169,-44.49171066,-0.110420235,-0.087369688,9.414682388,1.201012969,-1.284092665,0.393959701, 
425,228866005,-0.475744724,0.598842859,-44.49634933,-0.113523804,-0.074012034,9.397583961,1.333361864,-1.152282119,0.452232122, 
426,228874338,-0.475620806,0.599371016,-44.49573517,-0.109802902,-0.063125424,9.42066288,1.32731688,-1.24559474,0.538372815, 
427,228882671,-0.475726992,0.599757493,-44.50112915,-0.098024607,-0.055364601,9.428607941,1.299346089,-1.254969358,0.459429681, 
428,228891004,-0.476214021,0.59865731,-44.5006485,-0.112645611,-0.081703246,9.419355392,1.254879832,-1.440672636,0.521390557, 
429,228899337,-0.476628065,0.598348081,-44.50550079,-0.077877067,-0.080922805,9.438858032,1.263742208,-1.336525083,0.460915297, 
430,228907670,-0.476508319,0.598478556,-44.50474167,-0.093762159,-0.069171049,9.398995399,1.325805545,-1.294107914,0.556815028, 
431,228916003,-0.47612524,0.598269641,-44.5100975,-0.100381471,-0.073444106,9.411286354,1.358809471,-1.325229287,0.451655775, 
432,228924336,-0.476776063,0.59817493,-44.50992203,-0.10918469,-0.056788187,9.409160614,1.235541105,-1.320285797,0.487733454, 
433,228932669,-0.476803452,0.597495914,-44.51441956,-0.106451929,-0.070279561,9.382688522,1.308144569,-1.382553935,0.516895235, 
434,228941002,-0.477055371,0.597433627,-44.51515961,-0.09833651,-0.064288579,9.411370277,1.283631682,-1.315764785,0.377195209, 
435,228949335,-0.477065891,0.597887516,-44.51923752,-0.091046594,-0.076839358,9.395513535,1.312345266,-1.247477293,0.489769757, 
436,228957668,-0.477100044,0.597729683,-44.51892853,-0.083755411,-0.064482749,9.414486885,1.308426261,-1.327355146,0.50308919, 
437,228966001,-0.477314651,0.598378301,-44.52408218,-0.109121725,-0.073997378,9.401174545,1.28684628,-1.223694444,0.460274994, 
438,228974334,-0.477352649,0.598631203,-44.52422333,-0.100472972,-0.083400019,9.445785522,1.308515787,-1.278713822,0.448492438, 
439,228982667,-0.477224201,0.598633945,-44.52904129,-0.095886678,-0.08788123,9.4165802,1.326958299,-1.301280022,0.50451082, 
440,228991000,-0.477798373,0.599410236,-44.52898026,-0.093139797,-0.086921372,9.405552864,1.244890332,-1.215882182,0.474849492, 
441,228999333,-0.478220612,0.599464953,-44.53321838,-0.105487257,-0.084216677,9.414071083,1.261308908,-1.293826222,0.541497707, 
442,229007666,-0.47881034,0.599131703,-44.53317642,-0.099769168,-0.07347323,9.435156822,1.242712975,-1.349101782,0.470674366, 
443,229015999,-0.478528708,0.598859668,-44.53837967,-0.078550518,-0.094352461,9.413259506,1.345413208,-1.333630681,0.445995033, 
444,229024332,-0.478126585,0.598124266,-44.538414,-0.091066748,-0.088203251,9.43814373,1.361498833,-1.39732039,0.461158693, 
445,229032665,-0.478196174,0.598320365,-44.54365921,-0.083984569,-0.076128229,9.40738678,1.304993987,-1.277445912,0.44041115, 
446,229040998,-0.477692276,0.598560035,-44.54355621,-0.098868266,-0.077519104,9.386987686,1.373921871,-1.280199528,0.478627592, 
447,229049331,-0.47762388,0.59945339,-44.54803085,-0.111130729,-0.088722833,9.400418282,1.320285797,-1.193123937,0.498581201, 
448,229057664,-0.477149129,0.600038171,-44.54785538,-0.088717803,-0.086962037,9.38572216,1.370054126,-1.240330935,0.488642722, 
449,229065997,-0.477530003,0.599863946,-44.55284119,-0.100922495,-0.071567707,9.431950569,1.26681602,-1.322616577,0.485043913, 
450,229074330,-0.477545232,0.599094748,-44.55280304,-0.11257714,-0.082534567,9.430537224,1.312588573,-1.40122664,0.470033973, 
451,229082663,-0.477515548,0.599772334,-44.55745316,-0.097348712,-0.087594606,9.417097092,1.316481948,-1.219519258,0.457124442, 
452,229090996,-0.476945668,0.599616885,-44.55791473,-0.096264131,-0.088161781,9.411845207,1.381849527,-1.327611327,0.4113518, 
453,229099329,-0.476710021,0.598255694,-44.56248856,-0.07373178,-0.068738803,9.410365105,1.340124011,-1.465185404,0.520929515, 
454,229107662,-0.477268487,0.59844923,-44.56198502,-0.101830333,-0.070190959,9.42444706,1.246286154,-1.286052227,0.527140915, 
455,229115995,-0.477821738,0.598150253,-44.56623459,-0.107218482,-0.069920018,9.427080154,1.246939421,-1.337191105,0.447160482, 
456,229124328,-0.478051186,0.597048163,-44.56615829,-0.100972429,-0.062411919,9.391156197,1.285898447,-1.441748381,0.474670202, 
457,229132661,-0.477707267,0.596218944,-44.57090378,-0.105216287,-0.092970759,9.418504715,1.352726102,-1.401303649,0.522568822, 
458,229140994,-0.478271842,0.59647131,-44.57090378,-0.10367009,-0.05944445,9.42140007,1.24536407,-1.278957129,0.464437276, 
459,229149327,-0.478574991,0.596780717,-44.57661438,-0.112666145,-0.064252615,9.406367302,1.278521657,-1.264600396,0.391705662, 
460,229157660,-0.478385717,0.597289383,-44.57684708,-0.092020288,-0.058863305,9.411746979,1.335052252,-1.247028947,0.437734455, 
461,229165993,-0.478482544,0.596503139,-44.58133698,-0.10805542,-0.073837161,9.425886154,1.301472068,-1.397640705,0.475412965, 
462,229174326,-0.478382617,0.597040474,-44.58175278,-0.100162677,-0.069877051,9.38830471,1.325959444,-1.242905378,0.416602761, 
463,229182659,-0.478942633,0.596828878,-44.58665085,-0.079345115,-0.091100782,9.405220032,1.244608283,-1.328277349,0.463425517, 
464,229190992,-0.479581058,0.598290145,-44.58706665,-0.086158291,-0.083038405,9.409198761,1.237462044,-1.133096933,0.417319894, 
465,229199325,-0.480085105,0.598230958,-44.59189224,-0.092192128,-0.077955708,9.426207542,1.252600074,-1.309245944,0.414604753, 
466,229207658,-0.479432851,0.597932875,-44.59231186,-0.091376461,-0.07525,9.437306404,1.391723752,-1.344337344,0.414899379, 
467,229215991,-0.479671597,0.598739028,-44.59659195,-0.095466107,-0.078955263,9.392239571,1.284771562,-1.205405831,0.434840053, 
468,229224324,-0.479559928,0.599357188,-44.59679031,-0.10841845,-0.085486688,9.418334961,1.327444673,-1.233607054,0.44403556, 
469,229232657,-0.479267985,0.598649979,-44.60176086,-0.111712292,-0.0778106,9.421980858,1.348499894,-1.387830496,0.382638276, 
470,229240990,-0.47922951,0.598358214,-44.60183334,-0.105242863,-0.068136774,9.407987595,1.318159938,-1.342903256,0.457598358, 
471,229249323,-0.479112923,0.598017693,-44.60587692,-0.082460307,-0.080351636,9.422114372,1.32711184,-1.343953252,0.475259304, 
472,229257656,-0.478902668,0.598310232,-44.60625076,-0.102188379,-0.091607481,9.412384033,1.338945746,-1.272668839,0.420598507, 
473,229265989,-0.478931367,0.59873569,-44.6111908,-0.099733882,-0.089117944,9.399371147,1.308720946,-1.251870036,0.434199691, 
474,229274322,-0.479295254,0.598854423,-44.61156845,-0.106647536,-0.070609093,9.419013023,1.269620895,-1.29460752,0.419842958, 
475,229282655,-0.480575413,0.598992467,-44.61572647,-0.092811592,-0.080800086,9.393169403,1.1609267,-1.286679745,0.447416633, 
476,229290988,-0.481057048,0.599772573,-44.61621857,-0.108370498,-0.08271803,9.428358078,1.255571246,-1.214473248,0.406971753, 
477,229299321,-0.480414331,0.600440979,-44.61990356,-0.093418017,-0.06842757,9.429696083,1.38900876,-1.222759604,0.490000278, 
478,229307654,-0.480449289,0.600484788,-44.62061691,-0.088992462,-0.072924905,9.441126823,1.310501099,-1.30195868,0.382215589, 
479,229315987,-0.451765418,0.593221188,-44.62739182,-0.126433566,-0.081400305,9.41805172,1.276280403,-1.346450686,0.403859586, 
480,229324320,-0.451589823,0.593200266,-44.62729645,-0.104021423,-0.07623487,9.421401024,1.334450364,-1.311218262,0.476834565, 
481,229332653,-0.451617509,0.59373188,-44.63108063,-0.096045136,-0.061515432,9.403072357,1.304238558,-1.238576412,0.509351909, 
482,229340986,-0.450921297,0.594086528,-44.63146973,-0.114095837,-0.086977355,9.420345306,1.386882782,-1.263729453,0.421328515, 
483,229349319,-0.451004863,0.593126178,-44.63499069,-0.126549765,-0.079190269,9.38239193,1.298820972,-1.416877031,0.453756154, 
484,229357652,-0.451366752,0.593199253,-44.63531494,-0.10509681,-0.069608502,9.411293983,1.260181904,-1.297437787,0.428692639, 
485,229365985,-0.451771021,0.593136072,-44.6383667,-0.098304927,-0.064975873,9.405040741,1.259695292,-1.31091094,0.493419796, 
486,229374318,-0.451468825,0.594008625,-44.63812637,-0.077908121,-0.075816654,9.393380165,1.338843226,-1.201999068,0.496186197, 
487,229382651,-0.451784045,0.59439981,-44.64170837,-0.097723,-0.079920515,9.421853065,1.270350695,-1.2553792,0.490371674, 
488,229390984,-0.451527208,0.59457463,-44.64198303,-0.097715676,-0.083329029,9.40588665,1.332990408,-1.285335183,0.434622377, 
489,229399317,-0.451048255,0.594251633,-44.64691162,-0.107410491,-0.070868969,9.437429428,1.366698742,-1.341622472,0.437337458, 
490,229407650,-0.450729251,0.595175326,-44.64702225,-0.094858505,-0.087232769,9.421516418,1.340380192,-1.195800662,0.454742372, 
491,229415983,-0.451110899,0.595960617,-44.65118027,-0.087156937,-0.078091495,9.403675079,1.263588667,-1.208633423,0.468804568, 
492,229424316,-0.451281428,0.596009195,-44.65080643,-0.089887403,-0.078731619,9.417257309,1.282235861,-1.300562859,0.513373435, 
493,229432649,-0.451051921,0.594808996,-44.65403748,-0.097714558,-0.068318367,9.409995079,1.33494997,-1.446768761,0.532507181, 
494,229440982,-0.451267987,0.595026731,-44.65391922,-0.11607144,-0.083598129,9.415468216,1.276203752,-1.280647755,0.481470823, 
495,229449315,-0.451356828,0.594650447,-44.65816879,-0.089035809,-0.068874024,9.424775124,1.297847629,-1.34853816,0.442588329, 
496,229457648,-0.45140031,0.594538927,-44.65854263,-0.089532211,-0.09049008,9.429069519,1.299064279,-1.319927216,0.423108727, 
497,229465981,-0.45141831,0.594567001,-44.66192627,-0.08780428,-0.085212491,9.426937103,1.306261897,-1.298436761,0.428282797, 
498,229474314,-0.451770067,0.59464705,-44.66199112,-0.078117773,-0.081375308,9.431555748,1.260079265,-1.296259403,0.458353877, 
499,229482647,-0.451867759,0.594063878,-44.6657753,-0.067236029,-0.08545202,9.394271851,1.297450542,-1.373255849,0.47666809, 
500,229490980,-0.451948673,0.593903184,-44.66542053,-0.089928843,-0.076364435,9.42373085,1.291700244,-1.325523853,0.51082468, 
501,229499313,-0.452007473,0.594391704,-44.66868973,-0.098279662,-0.084062517,9.397939682,1.302996159,-1.243558407,0.442281038, 
502,229507646,-0.452199876,0.594574392,-44.66849899,-0.101089418,-0.052835215,9.415962219,1.278278589,-1.285258412,0.489846647, 
503,229515979,-0.451818079,0.594150424,-44.67158127,-0.110348135,-0.086111374,9.431467056,1.354173422,-1.354109406,0.486209422, 
504,229524312,-0.45190832,0.594354093,-44.67160416,-0.121030755,-0.087110728,9.416384697,1.291930676,-1.28180027,0.464334846, 
505,229532645,-0.452534735,0.594375014,-44.67518997,-0.105932996,-0.103042118,9.427894592,1.234016895,-1.300575495,0.463130951, 
506,229540978,-0.45231241,0.594926357,-44.67486954,-0.116877608,-0.081249848,9.403235435,1.329212189,-1.240983963,0.506585538, 
507,229549311,-0.452685297,0.595173657,-44.67848206,-0.105623357,-0.058158182,9.416935921,1.263614178,-1.273667812,0.521236897, 
508,229557644,-0.452924311,0.595412493,-44.67799759,-0.09947817,-0.091244318,9.419850349,1.273655057,-1.276920795,0.525796175, 
509,229565977,-0.453320682,0.595100224,-44.68046951,-0.114391118,-0.075044893,9.412761688,1.26042521,-1.341481447,0.54606986, 
510,229574310,-0.45365721,0.595648408,-44.67964172,-0.110025913,-0.07441327,9.401567459,1.261539459,-1.241829276,0.567470551, 
511,229582643,-0.453718215,0.595358908,-44.68346024,-0.119962074,-0.058777679,9.408826828,1.300729156,-1.338087559,0.46176061, 
512,229590976,-0.453805447,0.5949651,-44.68308258,-0.11202763,-0.07422974,9.441315651,1.291380167,-1.355198026,0.512374341, 
513,229599309,-0.453885406,0.594535649,-44.68719101,-0.090178996,-0.055716868,9.393363953,1.298154831,-1.353545785,0.44789052, 
514,229607642,-0.454128027,0.595528841,-44.6872139,-0.089561127,-0.047893312,9.378164291,1.274000764,-1.187949896,0.465615541, 
515,229615975,-0.45450303,0.595158398,-44.69058609,-0.079472065,-0.073837474,9.381849289,1.264331579,-1.349101901,0.493701667, 
516,229624308,-0.453793883,0.595476806,-44.69029617,-0.077375501,-0.082243569,9.390226364,1.38781786,-1.267033935,0.501667678, 
517,229632641,-0.454070717,0.595656455,-44.69362259,-0.083907247,-0.06503392,9.430295944,1.273321867,-1.283913493,0.485120803, 
518,229640974,-0.453917235,0.59498924,-44.69388962,-0.081480786,-0.076881506,9.424165726,1.321553588,-1.385960579,0.433559328, 
519,229649307,-0.454253435,0.595726252,-44.69762421,-0.096828789,-0.091006421,9.423828125,1.267277122,-1.215549111,0.503460586, 
520,229657640,-0.453125536,0.596071482,-44.69811249,-0.086912386,-0.095648386,9.418081284,1.439199686,-1.264420986,0.408559829, 
521,229665973,-0.453094691,0.595687747,-44.7026062,-0.078157626,-0.09623532,9.395478249,1.312434912,-1.347974777,0.335200667, 
522,229674306,-0.453022927,0.595910251,-44.70352554,-0.091992326,-0.087711379,9.402003288,1.313139319,-1.277932525,0.356370836, 
523,229682639,-0.452534765,0.596895039,-44.70705032,-0.089025497,-0.089940749,9.398596764,1.366903543,-1.185721278,0.511772394, 
524,229690972,-0.451439023,0.59757334,-44.70793915,-0.094119117,-0.067691542,9.415804863,1.43437171,-1.223989129,0.36239022, 
525,229699305,-0.451498985,0.597346902,-44.7127533,-0.09811382,-0.071298189,9.396623611,1.302176595,-1.330544233,0.418767124, 
526,229707638,-0.451878339,0.59761703,-44.71290588,-0.098600604,-0.06806808,9.409697533,1.257095337,-1.27398777,0.449401736, 
527,229715971,-0.452254266,0.597602427,-44.71696854,-0.08000537,-0.05769822,9.427490234,1.263729453,-1.30472517,0.429294556, 
528,229724304,-0.452942073,0.598051906,-44.71659088,-0.076331951,-0.071977176,9.397463799,1.219647408,-1.253586292,0.514385045, 
529,229732637,-0.452310711,0.597909391,-44.71987915,-0.106687486,-0.06458728,9.426113129,1.382656574,-1.320849419,0.511183262, 
530,229740970,-0.451958269,0.597064912,-44.72016525,-0.113192953,-0.074153192,9.402258873,1.345874429,-1.406413794,0.431907266, 
531,229749303,-0.451709658,0.597309589,-44.72344589,-0.084084637,-0.059239917,9.411117554,1.338062167,-1.275166392,0.489769816, 
532,229757636,-0.45093298,0.597303271,-44.72322464,-0.133746162,-0.05559713,9.431107521,1.395309925,-1.307145596,0.495071977, 
533,229765969,-0.450708121,0.597051144,-44.72527313,-0.099362269,-0.067780495,9.394003868,1.335000992,-1.334604144,0.483046025, 
534,229774302,-0.450187653,0.597095549,-44.7251091,-0.101525314,-0.064226806,9.409089088,1.365507603,-1.300408959,0.488015205, 
535,229782635,-0.450133175,0.597243011,-44.7287674,-0.106119022,-0.08068753,9.407932281,1.313997388,-1.287115097,0.504792511, 
536,229790968,-0.449521542,0.597115636,-44.72908783,-0.086173162,-0.084942035,9.40852356,1.376957178,-1.320106387,0.429256141, 
537,229799301,-0.449511409,0.59794724,-44.73256302,-0.115431346,-0.074718222,9.407291412,1.307440281,-1.204714298,0.474593401, 
538,229807634,-0.449152112,0.597975612,-44.73216629,-0.097239196,-0.07882493,9.409863472,1.345541477,-1.303585291,0.515512168, 
539,229815967,-0.449804187,0.597718358,-44.73548508,-0.104259335,-0.076526798,9.394134521,1.229688048,-1.334616899,0.447480679, 
540,229824300,-0.449506491,0.597863495,-44.73570251,-0.094633728,-0.072714314,9.398674011,1.338715315,-1.289241433,0.441166818, 
541,229832633,-0.449218869,0.596815825,-44.73889923,-0.078388028,-0.075159192,9.416103363,1.342109084,-1.428108811,0.428423673, 
542,229840966,-0.449050784,0.596586406,-44.73932266,-0.097731613,-0.078842603,9.426372528,1.325203776,-1.334617019,0.417896271, 
543,229849299,-0.448632509,0.59695977,-44.74318314,-0.085337915,-0.084909514,9.389076233,1.356440306,-1.257735968,0.422186673, 
544,229857632,-0.449268192,0.597634971,-44.74232864,-0.084312834,-0.080137923,9.416664124,1.226640105,-1.226268649,0.570300877, 
545,229865965,-0.449566245,0.597339988,-44.74575806,-0.098900631,-0.084842622,9.404263496,1.272335887,-1.338830352,0.445559591, 
546,229874298,-0.449862778,0.597736061,-44.74531174,-0.085657142,-0.068839386,9.420125008,1.266278028,-1.260732532,0.522363842, 
547,229882631,-0.449684173,0.597601593,-44.74848938,-0.098394714,-0.087466173,9.449706078,1.328853846,-1.318313599,0.449773192, 
548,229890964,-0.449350506,0.597714841,-44.74810028,-0.091045149,-0.082416035,9.395127296,1.342595816,-1.293787837,0.515179098, 
549,229899297,-0.449310452,0.598704159,-44.75195313,-0.107501172,-0.065535761,9.408539772,1.313062549,-1.185158014,0.476527244, 
550,229907630,-0.448620379,0.598842978,-44.75139236,-0.100120425,-0.060139678,9.427921295,1.384782314,-1.290342569,0.534184813, 
551,229915963,-0.448245406,0.59920156,-44.75366974,-0.092880666,-0.081376143,9.437164307,1.35102272,-1.261616349,0.600218296, 
552,229924296,-0.448339075,0.598860383,-44.75381088,-0.104587898,-0.076390073,9.393904686,1.292161345,-1.347347379,0.450016528, 
553,229932629,-0.447636783,0.597795904,-44.75667953,-0.103157729,-0.076619171,9.427493095,1.390955329,-1.431361914,0.544584215, 
554,229940962,-0.447573036,0.597753823,-44.75668716,-0.0997921,-0.069906332,9.402824402,1.311794639,-1.312294126,0.466832221, 
555,229949295,-0.447280407,0.597818017,-44.75992584,-0.110140115,-0.059892841,9.407021523,1.340841174,-1.29569602,0.480868816, 
556,229957628,-0.448104024,0.597961605,-44.76081085,-0.114785947,-0.051810451,9.394164085,1.206251264,-1.289740801,0.359444588, 
557,229965961,-0.448168904,0.598164201,-44.7645607,-0.089743964,-0.076115854,9.39991188,1.29942286,-1.279097915,0.437785685, 
558,229974294,-0.448035657,0.598204672,-44.76431656,-0.098098122,-0.080058657,9.429412842,1.318671942,-1.301036596,0.497146696, 
559,229982627,-0.448054165,0.598279178,-44.76703262,-0.094905652,-0.091180764,9.395472527,1.304430485,-1.295375824,0.474580556, 
560,229990960,-0.44837755,0.598605156,-44.76682281,-0.095258258,-0.078978293,9.405757904,1.264779568,-1.267405152,0.491665184, 
561,229999293,-0.448181659,0.598173916,-44.76965332,-0.082262881,-0.079234555,9.391777039,1.329148054,-1.35718298,0.527550697, 
562,230007626,-0.447937459,0.59789145,-44.76960754,-0.097374365,-0.080685072,9.406993866,1.333131313,-1.340418458,0.473824888, 
563,230015959,-0.448159456,0.597234786,-44.77176666,-0.09246023,-0.065476686,9.412684441,1.280161023,-1.383347869,0.482277572, 
564,230024292,-0.448396534,0.596824408,-44.77105713,-0.081210241,-0.091900684,9.460982323,1.273014545,-1.356376171,0.553562045, 
565,230032625,-0.448499203,0.596836209,-44.77359772,-0.077962436,-0.078354746,9.417020798,1.294748425,-1.301677108,0.478755772, 
566,230040958,-0.44894439,0.597162068,-44.77336502,-0.109324306,-0.068398759,9.430965424,1.250269175,-1.268621683,0.495801955, 
567,230049291,-0.449204147,0.596866786,-44.77680588,-0.09927664,-0.078459829,9.427623749,1.276728749,-1.33836925,0.493214965, 
568,230057624,-0.449685574,0.596649051,-44.77731323,-0.110882789,-0.071614951,9.402669907,1.245812297,-1.332631707,0.405767888, 
569,230065957,-0.449560016,0.597392797,-44.77947235,-0.084247813,-0.076602623,9.432141304,1.321527958,-1.214678168,0.546594977, 
570,230074290,-0.449610054,0.597969174,-44.77941895,-0.098269276,-0.099988423,9.416261673,1.295862675,-1.23780787,0.475208074, 
571,230082623,-0.449778736,0.597691536,-44.78196335,-0.113973208,-0.096732691,9.425475121,1.287051201,-1.33824122,0.530509233, 
572,230090956,-0.450037807,0.598505855,-44.78146362,-0.085803442,-0.077608824,9.405884743,1.271464944,-1.208133817,0.529215693, 
573,230099289,-0.449605793,0.59808284,-44.7843132,-0.099080384,-0.059719618,9.415102959,1.360192776,-1.355044484,0.460031718, 
574,230107622,-0.449459702,0.598531246,-44.78399277,-0.117568284,-0.081964634,9.390382767,1.318697572,-1.253086805,0.506060421, 
575,230115955,-0.449399561,0.598505735,-44.78628922,-0.096485659,-0.079838045,9.415991783,1.315367818,-1.307952404,0.494482815, 
576,230124288,-0.449328095,0.597777307,-44.78621292,-0.104934916,-0.077054866,9.4059515,1.311000347,-1.394361973,0.476437569, 
577,230132621,-0.449674755,0.597772062,-44.78862381,-0.09671896,-0.069405466,9.393525124,1.265509486,-1.304276824,0.513424516, 
578,230140954,-0.449800342,0.597455442,-44.78910446,-0.094613574,-0.076189302,9.400013924,1.288639307,-1.344926476,0.410788298, 
579,230149287,-0.450622439,0.597953439,-44.79272842,-0.090715192,-0.056581948,9.410861969,1.208543658,-1.244595647,0.412991107, 
580,230157620,-0.450912297,0.598107934,-44.79225922,-0.079670548,-0.074439377,9.421203613,1.268096685,-1.287345648,0.523900747, 
581,230165953,-0.451270014,0.598517478,-44.79434204,-0.092194386,-0.084192269,9.396315575,1.26321733,-1.255007863,0.482930839, 
582,230174286,-0.451913714,0.59805882,-44.79464722,-0.09595079,-0.089336835,9.41625309,1.226896286,-1.36248517,0.430037379, 
583,230182619,-0.451910406,0.598078907,-44.79722977,-0.092694752,-0.086297691,9.395593643,1.307939649,-1.300780416,0.44517538, 
584,230190952,-0.45255959,0.598008156,-44.7970314,-0.096573286,-0.091514178,9.413734436,1.224706173,-1.316238642,0.491754889, 
585,230199285,-0.453117251,0.5973593,-44.80050278,-0.093909726,-0.076791905,9.399255753,1.240535736,-1.381708622,0.415578157, 
586,230207618,-0.453396618,0.597455502,-44.80116653,-0.108748086,-0.078008093,9.416367531,1.270389199,-1.293429255,0.387620211, 
587,230215951,-0.453888655,0.597570956,-44.80276108,-0.093213692,-0.075962253,9.407359123,1.248975515,-1.291431308,0.503857613, 
588,230224284,-0.45381704,0.597294867,-44.80302811,-0.121944517,-0.08293052,9.419280052,1.311640859,-1.339240313,0.435557306, 
589,230232617,-0.453656584,0.597604454,-44.80569839,-0.101142086,-0.081196725,9.407867432,1.32695806,-1.266547084,0.506278098, 
590,230240950,-0.453764379,0.597856224,-44.80559921,-0.113244049,-0.071026146,9.41228199,1.289061904,-1.277189732,0.479421616, 
591,230249283,-0.453333795,0.598222971,-44.80820465,-0.105787367,-0.077962816,9.418183327,1.35992372,-1.260758162,0.44652012, 
592,230257616,-0.453210205,0.598417401,-44.80801392,-0.082540572,-0.068675376,9.409322739,1.317532182,-1.282120466,0.489628881, 
593,230265949,-0.453408033,0.598005891,-44.81113815,-0.109354615,-0.075643033,9.421072006,1.284758925,-1.353981376,0.429730058, 
594,230274282,-0.45295319,0.597126603,-44.81070328,-0.09684325,-0.078189939,9.40363884,1.356081724,-1.412855506,0.51949507, 
595,230282615,-0.452981472,0.597209632,-44.81263733,-0.097849227,-0.080704942,9.411945343,1.304135919,-1.295081139,0.547056019, 
596,230290948,-0.452943623,0.598208249,-44.81285858,-0.093592241,-0.071261458,9.397867203,1.306991935,-1.185990214,0.441973597, 
597,230299281,-0.453103721,0.598405898,-44.8151207,-0.097195201,-0.063759513,9.414553642,1.289087534,-1.280622005,0.450067699, 
598,230307614,-0.453418434,0.59833461,-44.81497574,-0.091723993,-0.077958174,9.42150116,1.264100909,-1.3158288,0.486375868, 
599,230315947,-0.454232782,0.597663701,-44.81775665,-0.091568016,-0.072590359,9.421312332,1.209196806,-1.384718299,0.500066698, 
600,230324280,-0.455248594,0.598587513,-44.8175621,-0.086387321,-0.081803776,9.422208786,1.181405306,-1.197030067,0.492561698, 
601,230332613,-0.455497116,0.598889768,-44.82022095,-0.091462359,-0.082914665,9.397338867,1.277804494,-1.267315507,0.477871954, 
602,230340946,-0.45511356,0.600235462,-44.82000351,-0.125129879,-0.078285091,9.410511971,1.348730326,-1.146083355,0.494828582, 
603,230349279,-0.455394477,0.599530935,-44.82362747,-0.10090892,-0.080533959,9.415736198,1.273296475,-1.389393091,0.442421854, 
604,230357612,-0.455629975,0.599800467,-44.8239212,-0.10201221,-0.070914917,9.402259827,1.275115132,-1.27323246,0.432355523, 
605,230365945,-0.454790294,0.599437773,-44.82677078,-0.100295715,-0.079615742,9.423874855,1.408052921,-1.348768711,0.453717738, 
606,230374278,-0.455237031,0.600071371,-44.82654572,-0.101730138,-0.073820993,9.392347336,1.250115395,-1.229611278,0.495468915, 
607,230382611,-0.455099463,0.601325512,-44.82877731,-0.116643071,-0.083586551,9.414224625,1.323628306,-1.154254317,0.430895448, 
608,230390944,-0.454541951,0.601071835,-44.82816696,-0.100599065,-0.082697958,9.412602425,1.368875861,-1.338138819,0.539282024, 
609,230399277,-0.454654157,0.601202607,-44.83071136,-0.095669813,-0.08847373,9.426151276,1.293659687,-1.289420485,0.473415077, 
610,230407610,-0.454323918,0.60142231,-44.83116913,-0.092987917,-0.071710892,9.428071976,1.343108058,-1.279136658,0.414002866, 
611,230415943,-0.454648018,0.601648688,-44.83406067,-0.128211617,-0.075794794,9.429517746,1.268877864,-1.277804494,0.437977761, 
612,230424276,-0.454505593,0.601804972,-44.83442688,-0.104299985,-0.067768112,9.411300659,1.320541859,-1.286334157,0.423941165, 
613,230432609,-0.454470396,0.602061629,-44.83695984,-0.097586468,-0.087915055,9.3835783,1.312422276,-1.274782062,0.47806406, 
614,230440942,-0.454658151,0.60269165,-44.83749008,-0.09303157,-0.088721797,9.392863274,1.281211138,-1.230584621,0.406536311, 
615,230449275,-0.45444873,0.60242641,-44.84078979,-0.104727536,-0.078115068,9.417610168,1.331927419,-1.336678863,0.439424992, 
616,230457608,-0.454014271,0.602694452,-44.84016418,-0.084853232,-0.082543299,9.401329041,1.355672002,-1.275281668,0.541344106, 
617,230465941,-0.454403788,0.602281153,-44.84347916,-0.089534141,-0.083199799,9.409848213,1.259977102,-1.354173422,0.508890808, 
618,230474274,-0.454216719,0.602354348,-44.84341812,-0.082647324,-0.09422601,9.427474022,1.325011492,-1.298308611,0.475412965, 
619,230482607,-0.454076916,0.602487743,-44.84586334,-0.093546145,-0.077686578,9.423609734,1.322398901,-1.289548635,0.567188799, 
620,230490940,-0.454150498,0.602194846,-44.84526062,-0.095329076,-0.089788482,9.41455555,1.293365359,-1.341635346,0.539102912, 
621,230499273,-0.454295576,0.602895617,-44.84799576,-0.08373373,-0.09638343,9.438540459,1.290829301,-1.221632481,0.453167051, 
622,230507606,-0.454516768,0.60261488,-44.84754181,-0.083425581,-0.094383717,9.410835266,1.275934577,-1.340649009,0.52197963, 
623,230515939,-0.454706192,0.603049815,-44.84981537,-0.095457241,-0.087706067,9.400857925,1.284822702,-1.251588345,0.501360297, 
624,230524272,-0.454261899,0.603087723,-44.84973907,-0.083335802,-0.074517012,9.422412872,1.356376171,-1.302279115,0.477116346, 
625,230532605,-0.453512281,0.602568626,-44.85207367,-0.085119016,-0.093486413,9.432744026,1.397551179,-1.367569685,0.473594427, 
626,230540938,-0.453151375,0.602128625,-44.85166168,-0.099036843,-0.085057378,9.420957565,1.346040845,-1.360576987,0.517394781, 
627,230549271,-0.454040498,0.601476133,-44.85331726,-0.112142876,-0.095258512,9.439128876,1.200014114,-1.382861137,0.532379031, 
628,230557604,-0.45500052,0.601748765,-44.85414124,-0.103392042,-0.071468748,9.424586296,1.189307332,-1.272310257,0.36847356, 
629,230565937,-0.456188112,0.602161705,-44.85621643,-0.09968029,-0.073365286,9.41178894,1.163821101,-1.256531835,0.513885617, 
630,230574270,-0.45701766,0.602554321,-44.85573959,-0.10773956,-0.07717751,9.409943581,1.203894734,-1.258504272,0.523093998, 
631,230582603,-0.457075685,0.60241729,-44.85829544,-0.101477452,-0.073051229,9.416544914,1.300895691,-1.321809649,0.435518831, 
632,230590936,-0.456742287,0.602322996,-44.85877228,-0.10710562,-0.062229585,9.412708282,1.343889117,-1.317724228,0.409635633, 
633,230599269,-0.456997812,0.602554798,-44.86167908,-0.113616854,-0.067913584,9.438840866,1.276972055,-1.275550485,0.430908263, 
634,230607602,-0.457045048,0.603903353,-44.86168289,-0.088278778,-0.072465375,9.438544273,1.296874404,-1.145404577,0.467895299, 
635,230615935,-0.457217604,0.602906525,-44.8635025,-0.111524418,-0.081522509,9.420629501,1.286679745,-1.425764918,0.508519411, 
636,230624268,-0.457087249,0.603345752,-44.86326981,-0.104735494,-0.071635999,9.411673546,1.319209814,-1.252933145,0.494457185, 
637,230632601,-0.457124144,0.60459137,-44.86525726,-0.103547893,-0.07037466,9.376538277,1.303457141,-1.155291557,0.497710168, 
638,230640934,-0.456805468,0.604845285,-44.864151,-0.096297137,-0.080872826,9.414476395,1.339919209,-1.27822721,0.600051939, 
639,230649267,-0.456830651,0.605694532,-44.86699295,-0.087253235,-0.072221838,9.425805092,1.303264976,-1.202255249,0.484121829, 
640,230657600,-0.457245678,0.605978072,-44.86633682,-0.086802818,-0.066372573,9.429207802,1.252869248,-1.273091555,0.545839369, 
641,230665933,-0.456867933,0.605588377,-44.86930847,-0.085915484,-0.086471654,9.431956291,1.352406025,-1.351778388,0.452398598, 
642,230674266,-0.456794828,0.606000543,-44.869133,-0.100414239,-0.099643134,9.409859657,1.312242985,-1.258184075,0.488617182, 
643,230682599,-0.45739162,0.606867254,-44.87153625,-0.095871635,-0.074267641,9.391845703,1.235874176,-1.200821161,0.456893921, 
644,230690932,-0.45724383,0.607399046,-44.87192535,-0.104676776,-0.080222428,9.416410446,1.321694613,-1.241150618,0.421200514, 
645,230699265,-0.457138866,0.606969893,-44.87533951,-0.113239534,-0.0862014,9.41123867,1.320529103,-1.358194709,0.471237868, 
646,230707598,-0.457386225,0.607212424,-44.87598419,-0.109757692,-0.086433947,9.394603729,1.272937655,-1.276536465,0.390143186, 
647,230715931,-0.457498193,0.606799781,-44.87820435,-0.113250352,-0.087685019,9.414251328,1.295004487,-1.353725076,0.508801103, 
648,230724264,-0.458012491,0.605998695,-44.8781662,-0.100455642,-0.076100759,9.393104553,1.240651131,-1.402507424,0.472352087, 
649,230732597,-0.458444923,0.606396317,-44.88005447,-0.078058288,-0.071207345,9.408736229,1.255174279,-1.258209586,0.521787524, 
650,230740930,-0.458406776,0.606801808,-44.87990952,-0.079987004,-0.072607569,9.441225052,1.307196856,-1.258440137,0.484032184, 
651,230749263,-0.458354354,0.607168436,-44.88225174,-0.102077827,-0.06457942,9.424955368,1.313651562,-1.260361195,0.429448247, 
652,230757596,-0.458639741,0.607446074,-44.88212967,-0.091170028,-0.078970797,9.43135643,1.268903494,-1.274167061,0.482444078, 
653,230765929,-0.458454162,0.607531607,-44.88524246,-0.091689616,-0.065341763,9.40790081,1.331773639,-1.294517875,0.389272302, 
654,230774262,-0.458125025,0.607994318,-44.88567734,-0.105727099,-0.072657548,9.403648376,1.342659712,-1.25038445,0.415475696, 
655,230782595,-0.458589584,0.607510567,-44.88848114,-0.093564466,-0.096454114,9.424085617,1.251357794,-1.361870408,0.469304025, 
656,230790928,-0.458770633,0.607207954,-44.88830948,-0.104423605,-0.069515921,9.415220261,1.281044841,-1.343197584,0.489334345, 
657,230799261,-0.459292084,0.608157337,-44.88872147,-0.078899018,-0.07936123,9.402480125,1.245620251,-1.191945672,0.500194788, 
658,230807594,-0.459605247,0.608505368,-44.88832474,-0.086399697,-0.072034985,9.401126862,1.264766812,-1.26541996,0.516754329, 
659,230815927,-0.459680289,0.609327376,-44.89122009,-0.089029901,-0.095280521,9.39179039,1.297937274,-1.206353545,0.473133355, 
660,230824260,-0.458877414,0.609852433,-44.89056015,-0.09536875,-0.077754982,9.42622757,1.398857594,-1.243571162,0.546492517, 
661,230832593,-0.458544642,0.610016286,-44.89177322,-0.09715762,-0.086270578,9.401967049,1.34574616,-1.286346793,0.554189563, 
662,230840926,-0.459025055,0.609754503,-44.89166641,-0.077723607,-0.082235157,9.43850708,1.246042848,-1.338138819,0.479818612, 
663,230849259,-0.458885729,0.610085011,-44.89338684,-0.078072257,-0.075448051,9.41958046,1.323474765,-1.265804291,0.532891393, 
664,230857592,-0.458523184,0.61053735,-44.89258575,-0.083364241,-0.078229181,9.424823761,1.345502973,-1.25286901,0.563602805, 
665,230865925,-0.457749903,0.610863507,-44.89432144,-0.091003321,-0.076189473,9.409287453,1.399126291,-1.266034722,0.505087078, 
666,230874258,-0.458290637,0.611317515,-44.89411163,-0.102855727,-0.083238833,9.421552658,1.239011645,-1.25165236,0.49294591, 
667,230882591,-0.458466798,0.611905992,-44.89608383,-0.0863024,-0.078524947,9.406235695,1.286359668,-1.235400081,0.480689496, 
668,230890924,-0.4576689,0.6119259,-44.89520645,-0.096658476,-0.066731408,9.395396233,1.39770472,-1.304507375,0.573464274, 
669,230899257,-0.457995683,0.612267733,-44.89787292,-0.094878286,-0.075309142,9.413532257,1.266867399,-1.263755202,0.468932629, 
670,230907590,-0.458103567,0.61167407,-44.89775467,-0.08935006,-0.063128345,9.424744606,1.291418552,-1.377123833,0.481189072, 
671,230915923,-0.457214892,0.612050354,-44.89958954,-0.080613084,-0.086368263,9.432599068,1.411779881,-1.260643005,0.545096517, 
672,230924256,-0.457390875,0.611766458,-44.89955902,-0.084280655,-0.079284444,9.386178017,1.281864285,-1.341276646,0.47294119, 
673,230932589,-0.457578927,0.611914992,-44.90141678,-0.075994685,-0.069658227,9.419721603,1.284489751,-1.287268758,0.571415126, 
674,230940922,-0.457368255,0.612071276,-44.90220261,-0.090362109,-0.066904597,9.393852234,1.329494119,-1.286193252,0.374134332, 
675,230949255,-0.45793581,0.612273812,-44.90457916,-0.093538955,-0.083534896,9.421079636,1.238281846,-1.281582713,0.490064383, 
676,230957588,-0.458344817,0.613024294,-44.90439987,-0.091714121,-0.095820345,9.398686409,1.254726052,-1.216010213,0.491345018, 
677,230965921,-0.458434403,0.612663567,-44.90596008,-0.103464536,-0.064297169,9.411578178,1.295145273,-1.348077178,0.526923239, 
678,230974254,-0.457988083,0.612935126,-44.90563965,-0.101310939,-0.070815772,9.418215752,1.356478691,-1.273450136,0.506623983, 
679,230982587,-0.456858069,0.613258421,-44.90794754,-0.097197309,-0.080835983,9.398961067,1.442619324,-1.266905665,0.485799551, 
680,230990920,-0.456783086,0.613801241,-44.90855408,-0.098988272,-0.085615352,9.402218819,1.312242985,-1.240126133,0.395381361, 
681,230999253,-0.457000017,0.614195883,-44.91024399,-0.074753895,-0.078939348,9.43211937,1.281249642,-1.258414507,0.533646941, 
682,231007586,-0.456641853,0.614471793,-44.91038132,-0.092269242,-0.096452825,9.420430183,1.346271396,-1.273642302,0.449696362, 
683,231015919,-0.457006991,0.614863455,-44.91091156,-0.108096585,-0.066995651,9.400671959,1.26179564,-1.257761359,0.511785209, 
684,231024252,-0.456908822,0.614611626,-44.91090775,-0.075347215,-0.079043366,9.40387249,1.316315532,-1.33603847,0.467229247, 
685,231032585,-0.457495511,0.614733934,-44.91246796,-0.08661446,-0.094425768,9.409742355,1.235489726,-1.290957451,0.523926377, 
686,231040918,-0.457624853,0.613697529,-44.91207123,-0.08961197,-0.091852203,9.415870667,1.287486672,-1.431246638,0.513219655, 
687,231049251,-0.457740813,0.61415261,-44.91398239,-0.086569376,-0.067900375,9.4147892,1.292788744,-1.249231815,0.477897614, 
688,231057584,-0.457625508,0.614704013,-44.91363907,-0.100921512,-0.098187946,9.419272423,1.316533208,-1.241112113,0.510402083, 
689,231065917,-0.457829356,0.615300894,-44.91645813,-0.084189162,-0.073923059,9.4255476,1.281966805,-1.232288003,0.507213056, 
690,231074250,-0.457712591,0.615790725,-44.91669846,-0.091066644,-0.074721403,9.417744637,1.31836462,-1.247477174,0.439924449, 
691,231082583,-0.458296835,0.615497887,-44.9179306,-0.097640626,-0.056298316,9.38878727,1.236053228,-1.340469837,0.548618436, 
692,231090916,-0.458511502,0.615644276,-44.91771317,-0.096470408,-0.072491258,9.40615654,1.276485443,-1.289126039,0.49317649, 
693,231099249,-0.458201051,0.616106093,-44.91906357,-0.088078655,-0.080273643,9.419546127,1.343236089,-1.249680161,0.566868663, 
694,231107582,-0.457670748,0.61611712,-44.91880798,-0.102512158,-0.093241431,9.401346207,1.367031693,-1.30581367,0.49819684, 
695,231115915,-0.45790863,0.616656244,-44.92084503,-0.096082687,-0.083718032,9.390459061,1.27822721,-1.23928082,0.501321852, 
696,231124248,-0.458150744,0.616589129,-44.92042542,-0.095322758,-0.087917037,9.428654671,1.274256825,-1.315482974,0.51817596, 
697,231132581,-0.457822621,0.617545307,-44.92235947,-0.101882495,-0.077771366,9.43247509,1.345592499,-1.189614654,0.480394959, 
698,231140914,-0.458286285,0.618013442,-44.92246246,-0.103969395,-0.074493229,9.388104439,1.247029185,-1.249808311,0.456368864, 
699,231149247,-0.458769947,0.618753493,-44.92394257,-0.088247597,-0.075431094,9.44060421,1.249667168,-1.216765642,0.557775557, 
700,231157580,-0.459142387,0.618769467,-44.92313766,-0.097772382,-0.078785479,9.427916527,1.257799745,-1.305557489,0.563167334, 
701,231165913,-0.459430486,0.618608236,-44.92497253,-0.081084006,-0.077596806,9.414774895,1.272297621,-1.323922992,0.490909666, 
702,231174246,-0.459536582,0.618193328,-44.92542648,-0.086735934,-0.088004604,9.391358376,1.290995836,-1.35599196,0.412760586, 
703,231182579,-0.459490001,0.619414449,-44.92804337,-0.097565904,-0.083517134,9.39279747,1.313024044,-1.156533837,0.472057551, 
704,231190912,-0.459144115,0.619331598,-44.92773438,-0.099591151,-0.067502312,9.415655136,1.344222307,-1.316622853,0.503767967, 
705,231199245,-0.458733976,0.619629502,-44.93055725,-0.094005018,-0.070973329,9.404683113,1.356389046,-1.269646645,0.47180146, 
706,231207578,-0.459432036,0.619438112,-44.92987442,-0.09444204,-0.078364976,9.391329765,1.218482018,-1.330275297,0.549412608, 
707,231215911,-0.459451258,0.619268417,-44.93088531,-0.09385483,-0.065298319,9.419844627,1.302944899,-1.323910356,0.553165019, 
708,231224244,-0.458974838,0.619505763,-44.92975616,-0.108567514,-0.062734552,9.407149315,1.358451009,-1.279136419,0.602446735, 
709,231232577,-0.458836645,0.619522691,-44.93178558,-0.08785329,-0.061164588,9.410180092,1.324640036,-1.303290486,0.451502085, 
710,231240910,-0.459097773,0.6195575,-44.93252945,-0.08834561,-0.08789026,9.377054214,1.271926165,-1.300473213,0.37747702, 
711,231249243,-0.459910274,0.62038058,-44.93390274,-0.099594504,-0.078455865,9.415192604,1.210144401,-1.206571221,0.549911976, 
712,231257576,-0.459483892,0.620196819,-44.93457794,-0.094142206,-0.085617416,9.406522751,1.354262948,-1.328251719,0.386967033, 
713,231265909,-0.459455132,0.619909286,-44.93687439,-0.097713083,-0.071068674,9.429853439,1.310616255,-1.339265823,0.45159173, 
714,231274242,-0.459092349,0.620725214,-44.93675232,-0.085250191,-0.094614379,9.396353722,1.347321749,-1.207916141,0.483020484, 
715,231282575,-0.459184021,0.620078623,-44.93939209,-0.085150704,-0.067986362,9.428714752,1.294735551,-1.381836772,0.450695306, 
716,231290908,-0.459563196,0.619597256,-44.93875885,-0.098700307,-0.061135054,9.407850266,1.257069826,-1.36463666,0.544353783, 
717,231299241,-0.46007055,0.620372713,-44.94177628,-0.096410267,-0.086729035,9.422748566,1.246747255,-1.210541606,0.409366697, 
718,231307574,-0.45963037,0.620557725,-44.94194031,-0.100839004,-0.085274294,9.41989994,1.35632503,-1.283081293,0.44801864, 
719,231315907,-0.456938654,0.600193083,-44.95310211,-0.074846946,-0.073706076,9.430123329,1.235887051,-1.265919566,0.511106491, 
720,231324240,-0.457293868,0.600926697,-44.95254135,-0.082086548,-0.085419171,9.410848618,1.260053754,-1.218827605,0.534171999, 
721,231332573,-0.457678437,0.601070166,-44.95399857,-0.082257621,-0.066252671,9.403179169,1.260335565,-1.284476876,0.513962388, 
722,231340906,-0.45831871,0.601678491,-44.9551506,-0.085925288,-0.086898424,9.399572372,1.226332664,-1.226934671,0.332805753, 
723,231349239,-0.458149463,0.601489067,-44.95645523,-0.10066776,-0.07041382,9.396156311,1.326305032,-1.324729681,0.551781833, 
724,231357572,-0.457768023,0.600884318,-44.95618439,-0.080941148,-0.067876957,9.432717323,1.348153949,-1.374703169,0.504293025, 
725,231365905,-0.457024276,0.60164696,-44.95817566,-0.092032969,-0.081177838,9.412408829,1.395373821,-1.210836172,0.484787792, 
726,231374238,-0.456252843,0.601247549,-44.95764542,-0.084368654,-0.086248249,9.405053139,1.393811345,-1.348999143,0.535632014, 
727,231382571,-0.456014067,0.60153234,-44.9604187,-0.087367818,-0.083391614,9.40941143,1.337293625,-1.266201138,0.378962606, 
728,231390904,-0.456314057,0.601427495,-44.96002197,-0.09465266,-0.070754789,9.39245224,1.264958978,-1.314151049,0.517458737, 
729,231399237,-0.456480861,0.601358473,-44.96233368,-0.108894326,-0.071142621,9.411888123,1.285937071,-1.310283303,0.509185374, 
730,231407570,-0.456718206,0.601644397,-44.96192169,-0.096898474,-0.039373893,9.378342628,1.274589896,-1.268019795,0.520199478, 
731,231415903,-0.458099782,0.602632761,-44.96369171,-0.097147167,-0.072379723,9.418941498,1.140307188,-1.183633685,0.477513373, 
732,231424236,-0.459064931,0.602460682,-44.96388626,-0.09700308,-0.072130159,9.436121941,1.185823679,-1.321976185,0.447749645, 
733,231432569,-0.459072113,0.602567315,-44.96685028,-0.107109733,-0.072676711,9.391480446,1.305570245,-1.288498521,0.474977553, 
734,231440902,-0.459255964,0.602620363,-44.96628571,-0.104158692,-0.088841565,9.421824455,1.280225277,-1.295017481,0.538180709, 
735,231449235,-0.459348321,0.602211237,-44.96767807,-0.101548262,-0.088235639,9.401351929,1.294825077,-1.351855278,0.485107988, 
736,231457568,-0.459234715,0.602804959,-44.96678543,-0.095861912,-0.094843164,9.43373394,1.314394474,-1.230418205,0.579061031, 
737,231465901,-0.459153056,0.602654994,-44.96848297,-0.107375152,-0.082489952,9.413683891,1.315572858,-1.319350958,0.557212114, 
738,231474234,-0.458924353,0.602170587,-44.96831512,-0.077911958,-0.076683275,9.410996437,1.329583883,-1.360718012,0.489923507, 
739,231482567,-0.459261775,0.602583468,-44.96964645,-0.080662698,-0.075514786,9.404345512,1.266956925,-1.251498699,0.473504752, 
740,231490900,-0.459573507,0.602030158,-44.96912766,-0.089069381,-0.09870062,9.409292221,1.264715672,-1.369337201,0.531380177, 
741,231499233,-0.460104913,0.602040529,-44.97106552,-0.0945087,-0.073836192,9.412810326,1.242085338,-1.2993716,0.41764006, 
742,231507566,-0.460767329,0.601917565,-44.97124863,-0.094854146,-0.105497554,9.412192345,1.224104404,-1.316430926,0.449760377, 
743,231515899,-0.46053949,0.601882398,-44.97309113,-0.083677255,-0.084605582,9.432436943,1.332977653,-1.306223631,0.51716429, 
744,231524232,-0.460369378,0.602046371,-44.97298431,-0.091262557,-0.066948123,9.411097527,1.322988033,-1.282017946,0.483199716, 
745,231532565,-0.460548669,0.60194087,-44.97520828,-0.128177762,-0.073900051,9.416184425,1.286001086,-1.312370896,0.390732348, 
746,231540898,-0.460067987,0.601637721,-44.9746666,-0.102783248,-0.075215429,9.41501236,1.358297348,-1.338561654,0.53582418, 
747,231549231,-0.460128337,0.601608753,-44.97657013,-0.108766034,-0.06292741,9.420362473,1.298923492,-1.305006742,0.499759346, 
748,231557564,-0.459760964,0.601031601,-44.97649384,-0.098186314,-0.067200653,9.419931412,1.346924543,-1.370348692,0.479549676, 
749,231565897,-0.459977508,0.601135314,-44.97783661,-0.10470701,-0.076567329,9.391023636,1.279968977,-1.289356709,0.504984677, 
750,231574230,-0.460314363,0.601302207,-44.978302,-0.115926795,-0.088155746,9.409832001,1.263819218,-1.282197237,0.414912164, 
751,231582563,-0.460014999,0.600992262,-44.9808197,-0.113658175,-0.071988069,9.407739639,1.341788888,-1.33836925,0.418318868, 
752,231590896,-0.460404634,0.60125643,-44.98106766,-0.097551413,-0.071169704,9.417037964,1.256224513,-1.268608928,0.440897822, 
753,231599229,-0.461095035,0.601000011,-44.98257828,-0.095858157,-0.064361125,9.414459229,1.222234368,-1.333054423,0.518841922, 
754,231607562,-0.460847586,0.600272894,-44.98272705,-0.096406177,-0.080523588,9.406135559,1.332913518,-1.388637185,0.450631231, 
755,231615895,-0.461434096,0.60013032,-44.98423004,-0.095278054,-0.079158708,9.440027237,1.235579491,-1.318889737,0.492151886, 
756,231624228,-0.462079763,0.600513101,-44.98405075,-0.113277458,-0.074497245,9.416424751,1.225769162,-1.255891562,0.49327895, 
757,231632561,-0.462565005,0.600457489,-44.98648071,-0.097700223,-0.076177709,9.398033142,1.247733474,-1.308964252,0.474081099, 
758,231640894,-0.462971419,0.599424243,-44.98649597,-0.090799123,-0.081980489,9.424526215,1.252612829,-1.424894214,0.468919754, 
759,231649227,-0.462621093,0.59899807,-44.98827744,-0.072011001,-0.084059983,9.428177834,1.349447489,-1.353865981,0.483174086, 
760,231657560,-0.462772012,0.599092841,-44.98870087,-0.091643937,-0.077314578,9.404582977,1.283875108,-1.289241195,0.41895923, 
761,231665893,-0.462418586,0.599652529,-44.99089432,-0.092946023,-0.085106708,9.413912773,1.349383473,-1.233594298,0.4151555, 
762,231674226,-0.462575257,0.599605978,-44.99034119,-0.0732603,-0.068913147,9.416652679,1.283785343,-1.30708158,0.537335396, 
763,231682559,-0.462076485,0.59937948,-44.99189758,-0.082974344,-0.07404688,9.404438019,1.365085006,-1.329622269,0.483622372, 
764,231690892,-0.462518126,0.59905535,-44.99287415,-0.085461713,-0.067312777,9.423151016,1.251498699,-1.339342713,0.354103953, 
765,231699225,-0.462626278,0.599409759,-44.99497223,-0.095686421,-0.085017882,9.425908089,1.291969299,-1.259272695,0.495366514, 
766,231707558,-0.462781966,0.599967957,-44.99475098,-0.091628313,-0.082927406,9.416193962,1.284579515,-1.234209061,0.497402877, 
767,231715891,-0.462662518,0.599793851,-44.99634552,-0.109952934,-0.075025983,9.39030838,1.31947875,-1.323154449,0.511221707, 
768,231724224,-0.46166417,0.600682735,-44.99617767,-0.085669078,-0.054352958,9.410399437,1.422115207,-1.195365191,0.492702633, 
769,231732557,-0.461185753,0.599960148,-44.99694443,-0.109529771,-0.061706554,9.404396057,1.361972928,-1.3889575,0.597029388, 
770,231740890,-0.461634189,0.600179136,-44.99694824,-0.108257033,-0.077783734,9.407161713,1.248591423,-1.274910092,0.470072448, 
771,231749223,-0.461865127,0.599842608,-44.99835205,-0.096654296,-0.081109993,9.413882256,1.27918756,-1.342237234,0.507379532, 
772,231757556,-0.461848229,0.599703014,-44.99777985,-0.107798517,-0.073498614,9.424412727,1.303700566,-1.319056273,0.540165901, 
773,231765889,-0.461980194,0.599695802,-44.99970627,-0.095187485,-0.074161798,9.423159599,1.289971471,-1.301613212,0.45912239, 
774,231774222,-0.461252928,0.599364638,-44.99926758,-0.094448052,-0.080452681,9.394539833,1.389303327,-1.342365146,0.524028897, 
775,231782555,-0.461353511,0.60038954,-45.00156021,-0.102321014,-0.083605982,9.406209946,1.293403506,-1.177998543,0.482687443, 
776,231790888,-0.460761636,0.600321829,-45.00130844,-0.094569676,-0.088522732,9.413719177,1.373627424,-1.309169173,0.499669641, 
777,231799221,-0.460738212,0.600520074,-45.00240326,-0.089944705,-0.075483613,9.402351379,1.307811618,-1.278470397,0.512156665, 
778,231807554,-0.46048677,0.600167155,-45.00254822,-0.0789994,-0.070706144,9.400510788,1.333028674,-1.344439983,0.45417878, 
779,231815887,-0.46048069,0.599849403,-45.00408554,-0.084876232,-0.079279222,9.403244972,1.304840446,-1.339150667,0.53836, 
780,231824220,-0.461107403,0.600280166,-45.00414276,-0.080852866,-0.089367084,9.410327911,1.227587819,-1.250166655,0.464949548, 
781,231832553,-0.461408734,0.601144552,-45.00584412,-0.088530526,-0.082005382,9.420334816,1.269595265,-1.197606564,0.522197425, 
782,231840886,-0.461629391,0.601540208,-45.00547791,-0.09468247,-0.071887866,9.388511658,1.275844932,-1.254316211,0.516101241, 
783,231849219,-0.461569667,0.601005673,-45.00746918,-0.093660049,-0.088024214,9.417459488,1.313331366,-1.366519332,0.50684166, 
784,231857552,-0.461391658,0.601157308,-45.00718307,-0.091235563,-0.083959721,9.407723427,1.322129846,-1.282824993,0.504882216, 
785,231865885,-0.460901916,0.601339698,-45.00772476,-0.093027219,-0.085264437,9.410635948,1.364342213,-1.281390667,0.539538324, 
786,231874218,-0.46034503,0.601683021,-45.00772095,-0.092339039,-0.089568689,9.406128883,1.369708538,-1.260246038,0.471596509, 
787,231882551,-0.460059285,0.602148175,-45.00910187,-0.093021594,-0.08292447,9.400226593,1.340226293,-1.244928598,0.512246251, 
788,231890884,-0.460401922,0.601596117,-45.00902176,-0.095513262,-0.076112248,9.432014465,1.260207534,-1.36882472,0.479716212, 
789,231899217,-0.460811526,0.600770056,-45.01118469,-0.087235078,-0.061903309,9.406719208,1.257287502,-1.39897275,0.429461062, 
790,231907550,-0.460742593,0.601144314,-45.01113129,-0.102511339,-0.05975429,9.403775215,1.311141372,-1.256544709,0.479037404, 
791,231915883,-0.459951609,0.6013484,-45.01250458,-0.106210135,-0.088925466,9.394235611,1.399407983,-1.277369022,0.541561782, 
792,231924216,-0.459475905,0.601616979,-45.01289368,-0.103313193,-0.082384668,9.412146568,1.36103797,-1.268762589,0.423428923, 
793,231932549,-0.459984213,0.601512074,-45.01414871,-0.091040313,-0.078219332,9.406443596,1.244019508,-1.315316677,0.485248923, 
794,231940882,-0.459956467,0.60199368,-45.01366425,-0.104779594,-0.093656629,9.422712326,1.305467844,-1.244365096,0.52963835, 
795,231949215,-0.460363925,0.602401197,-45.01514053,-0.12632075,-0.078072943,9.409381866,1.256339788,-1.252433538,0.471340328, 
796,231957548,-0.461375713,0.602561951,-45.01556396,-0.101042613,-0.064192384,9.387032509,1.182378531,-1.280724525,0.419740438, 
797,231965881,-0.462012738,0.602719843,-45.01763916,-0.089045636,-0.067074023,9.408596039,1.229777813,-1.282453537,0.436069548, 
798,231974214,-0.461172819,0.60306865,-45.01690674,-0.117128976,-0.093771517,9.39692688,1.40130353,-1.259746432,0.558210969, 
799,231982547,-0.461115748,0.603141725,-45.01818085,-0.084192857,-0.07603851,9.412156105,1.312012434,-1.294582009,0.610540986, 
800,231990880,-0.461265206,0.603382051,-45.01781082,-0.089164197,-0.08030846,9.406679153,1.283926249,-1.27305305,0.515371263, 
801,231999213,-0.461730123,0.603450418,-45.01896667,-0.079472445,-0.071379118,9.419364929,1.248694181,-1.293634295,0.557596385, 
802,232007546,-0.462294102,0.604069114,-45.01872635,-0.086131595,-0.08054205,9.429883003,1.234631896,-1.228292346,0.50091207, 
803,232015879,-0.462330967,0.603794396,-45.02009583,-0.097350366,-0.080093205,9.419011116,1.3020612,-1.334604025,0.493983299, 
804,232024212,-0.463133216,0.60381645,-45.01978302,-0.106141016,-0.086378589,9.388228416,1.205136895,-1.29797554,0.50684166, 
805,232032545,-0.463338435,0.603731394,-45.02161407,-0.094369315,-0.07040108,9.399490356,1.282197356,-1.311794639,0.483878553, 
806,232040878,-0.462560892,0.603469133,-45.02139282,-0.099763609,-0.073129572,9.416313171,1.394887209,-1.333656311,0.498312086, 
807,232049211,-0.462919056,0.603149414,-45.02288818,-0.088576391,-0.084041774,9.384928703,1.26166749,-1.34090507,0.548746526, 
808,232057544,-0.4635095,0.603616953,-45.02177811,-0.07185749,-0.072242819,9.405452728,1.230610251,-1.245172024,0.603163958, 
809,232065877,-0.464481205,0.604006946,-45.0230484,-0.093830869,-0.079370178,9.436865807,1.188231468,-1.256327033,0.571005344, 
810,232074210,-0.46552372,0.604011238,-45.02272415,-0.06988176,-0.091171592,9.405363083,1.177294374,-1.300383449,0.509249449, 
811,232082543,-0.465706468,0.603005409,-45.02349854,-0.088461637,-0.072758704,9.43608284,1.282850504,-1.423690319,0.57494992, 
812,232090876,-0.465889513,0.603399634,-45.02363586,-0.086219996,-0.07605201,9.40311718,1.280033231,-1.25315094,0.454767972, 
813,232099209,-0.466290563,0.604192913,-45.02489471,-0.084683098,-0.077881508,9.40372467,1.258196712,-1.206430435,0.517202616, 
814,232107542,-0.466874957,0.604678869,-45.02505112,-0.098454528,-0.076041713,9.411859512,1.232211232,-1.243827224,0.451156318, 
815,232115875,-0.466782242,0.604921937,-45.02675247,-0.092830844,-0.081264928,9.404791832,1.316277146,-1.271951795,0.460044503, 
816,232124208,-0.466116935,0.604987264,-45.02624512,-0.095829837,-0.071590692,9.394982338,1.382272005,-1.293070555,0.5308038, 
817,232132541,-0.465893567,0.604980946,-45.02762222,-0.084000602,-0.076207675,9.415024757,1.331786633,-1.302317381,0.479344815, 
818,232140874,-0.465954185,0.605040491,-45.0283699,-0.101372994,-0.08985284,9.405546188,1.296413302,-1.293992758,0.38249737, 
819,232149207,-0.466224879,0.604848504,-45.02990723,-0.103130646,-0.070408128,9.410943031,1.27455163,-1.324332833,0.450900227, 
820,232157540,-0.466367453,0.604678512,-45.03059769,-0.097542048,-0.065263413,9.40983963,1.286282659,-1.321335912,0.38868317, 
821,232165873,-0.466309786,0.605725408,-45.03236008,-0.08951588,-0.062930234,9.414402962,1.313049912,-1.174156666,0.465884537, 
822,232174206,-0.466668844,0.605685055,-45.03223038,-0.097313374,-0.073244184,9.406565666,1.25804317,-1.306390047,0.485492259, 
823,232182539,-0.465815604,0.605903864,-45.03368378,-0.087161332,-0.077576958,9.428658485,1.409051776,-1.276024222,0.464655012, 
824,232190872,-0.46591267,0.605944514,-45.03359985,-0.084043831,-0.06940823,9.421896935,1.28933084,-1.296157122,0.480612665, 
825,232199205,-0.466213942,0.606528759,-45.03409576,-0.093236879,-0.087895162,9.408082962,1.270081639,-1.230956078,0.526526213, 
826,232207538,-0.466412812,0.606203139,-45.03427124,-0.087341823,-0.085939899,9.411142349,1.279059649,-1.34116137,0.450311065, 
827,232215871,-0.466961324,0.60660392,-45.03553772,-0.110774532,-0.075635843,9.387727737,1.239331841,-1.252049327,0.499234229, 
828,232224204,-0.467018604,0.606340766,-45.03578186,-0.107812278,-0.067479447,9.405306816,1.295209289,-1.332465172,0.441794306, 
829,232232537,-0.467969507,0.60617739,-45.03688049,-0.107085578,-0.097950473,9.412414551,1.190754533,-1.3220402,0.515230298, 
830,232240870,-0.467694819,0.605674386,-45.03659439,-0.079783984,-0.083942696,9.404423714,1.3357054,-1.361665487,0.505240798, 
831,232249203,-0.468205512,0.605545759,-45.0385704,-0.100154474,-0.074152417,9.412545204,1.245376945,-1.316981435,0.452744365, 
832,232257536,-0.468011081,0.605772018,-45.03801346,-0.097114824,-0.088525526,9.416745186,1.324166179,-1.274794698,0.535606444, 
833,232265869,-0.467468023,0.605900466,-45.04018021,-0.093669474,-0.085259147,9.403125763,1.371591091,-1.284617782,0.408854395, 
834,232274202,-0.46753338,0.606514037,-45.0394783,-0.107538477,-0.102494821,9.406864166,1.294184804,-1.227831125,0.555700779, 
835,232282535,-0.467276245,0.606383502,-45.04091263,-0.105329163,-0.065487258,9.418195724,1.33722949,-1.317109585,0.424082071, 
836,232290868,-0.466679513,0.606403649,-45.04101181,-0.083145812,-0.071431413,9.42169857,1.373473525,-1.299000263,0.457713544, 
837,232299201,-0.46702978,0.60619247,-45.04240036,-0.089491159,-0.077125289,9.396100044,1.263831973,-1.325549483,0.437234968, 
838,232307534,-0.467837453,0.606474221,-45.04225159,-0.113375381,-0.08771567,9.415512085,1.205226541,-1.268609047,0.488514662, 
839,232315867,-0.467803031,0.606527269,-45.04445648,-0.091566972,-0.068171732,9.405619621,1.310398579,-1.292916775,0.429268926, 
840,232324200,-0.466971993,0.606977999,-45.04352188,-0.077610426,-0.058816087,9.409905434,1.401610851,-1.248578787,0.583492219, 
841,232332533,-0.467134565,0.607277572,-45.04403687,-0.099120714,-0.06547685,9.418952942,1.286538959,-1.265727401,0.513194025, 
842,232340866,-0.467159867,0.607182264,-45.04334259,-0.086813644,-0.082027175,9.423845291,1.298347235,-1.313984752,0.554100037, 
843,232349199,-0.46742177,0.607158065,-45.04603195,-0.099189937,-0.059872612,9.430553436,1.272976279,-1.302752852,0.50078392, 
844,232357532,-0.466780961,0.607544184,-45.0458107,-0.105053321,-0.068415463,9.410941124,1.379787803,-1.256544948,0.49837622, 
845,232365865,-0.467125326,0.608289242,-45.046978,-0.087442882,-0.071521491,9.407250404,1.263242841,-1.210977197,0.489257544, 
846,232374198,-0.467296153,0.60861671,-45.04644394,-0.105621316,-0.073560402,9.413066864,1.281864285,-1.263972998,0.534902096, 
847,232382531,-0.467666209,0.609136701,-45.04848099,-0.114909418,-0.07819777,9.404717445,1.262282252,-1.237551689,0.425439626, 
848,232390864,-0.467316061,0.609417319,-45.04875183,-0.108765639,-0.068971515,9.406543732,1.343402505,-1.268544912,0.439553082, 
849,232399197,-0.468002796,0.609882951,-45.04975128,-0.093149848,-0.07203497,9.425704956,1.22264421,-1.244557261,0.549758315, 
850,232407530,-0.468667001,0.609822571,-45.04970932,-0.103033498,-0.078880437,9.438439369,1.223002791,-1.309975982,0.475784421, 
851,232415863,-0.468830526,0.609532297,-45.05112076,-0.104930788,-0.066719688,9.422387123,1.286718249,-1.334962606,0.456151098, 
852,232424196,-0.468675464,0.610244751,-45.05049515,-0.098976076,-0.061301056,9.400454521,1.319005013,-1.216381669,0.546274722, 
853,232432529,-0.468492657,0.6100173,-45.05108643,-0.103638545,-0.103113741,9.427313805,1.327406406,-1.328751206,0.487029046, 
854,232440862,-0.468273729,0.610571742,-45.05038452,-0.100272924,-0.061866656,9.407628059,1.329173923,-1.235797286,0.555265367, 
855,232449195,-0.468577236,0.610608816,-45.05144882,-0.081039146,-0.077255413,9.431883812,1.268160939,-1.296503067,0.517305136, 
856,232457528,-0.468953311,0.610450625,-45.05096436,-0.089806192,-0.09206716,9.408146858,1.256915927,-1.321527958,0.530163407, 
857,232465861,-0.469645143,0.610689938,-45.05290985,-0.100601703,-0.087444909,9.432461739,1.222503543,-1.272233486,0.454665542, 
858,232474194,-0.469744384,0.610181093,-45.05325317,-0.090461724,-0.073212072,9.421498299,1.290368319,-1.36228025,0.428449273, 
859,232482527,-0.469750583,0.610272288,-45.0553894,-0.094247945,-0.088420041,9.428997993,1.305506229,-1.288741708,0.404679298, 
860,232490860,-0.469723046,0.610273898,-45.05538559,-0.089097135,-0.083561689,9.437351227,1.305557489,-1.301574469,0.470149249, 
861,232499193,-0.470208943,0.610164583,-45.05699921,-0.094775632,-0.090382606,9.417496681,1.248232961,-1.315508723,0.480932891, 
862,232507526,-0.469989926,0.609583855,-45.0562973,-0.081489101,-0.080278352,9.404752731,1.326983809,-1.37120688,0.554996431, 
863,232515859,-0.469900906,0.609382629,-45.05617142,-0.105238743,-0.090716735,9.413062096,1.315547109,-1.325908065,0.580290556, 
864,232524192,-0.470079303,0.609560966,-45.05649567,-0.104376547,-0.058522809,9.415905952,1.281684995,-1.279289961,0.432291418, 
865,232532525,-0.469792306,0.609724164,-45.05800247,-0.085021272,-0.084300324,9.422986984,1.339189172,-1.281339288,0.488847703, 
866,232540858,-0.469725728,0.6096403,-45.05828857,-0.079483546,-0.079077519,9.433114052,1.31073153,-1.312921643,0.436005473, 
867,232549191,-0.470366806,0.609366477,-45.06084061,-0.090272449,-0.071223244,9.4324646,1.230802536,-1.332119584,0.394651324, 
868,232557524,-0.470745564,0.610316038,-45.06082916,-0.082339898,-0.062499672,9.398314476,1.256544709,-1.187731981,0.473030835, 
869,232565857,-0.470296741,0.611283362,-45.06293869,-0.105423547,-0.084363021,9.395137787,1.358451009,-1.184850454,0.485850781, 
870,232574190,-0.469521523,0.610687196,-45.06332016,-0.115521818,-0.068810724,9.396823883,1.397307754,-1.372653961,0.425554901, 
871,232582523,-0.469684482,0.610618353,-45.06470871,-0.090804651,-0.092946328,9.446121216,1.285360575,-1.309783816,0.446135879, 
872,232590856,-0.46900776,0.609763682,-45.06517792,-0.097774945,-0.08734908,9.390543938,1.383924365,-1.402968645,0.414323092, 
873,232599189,-0.468879521,0.609641314,-45.06627274,-0.100341387,-0.089102671,9.422088623,1.321015954,-1.316341162,0.539499819, 
874,232607522,-0.468949974,0.609239757,-45.0661087,-0.106216446,-0.078633524,9.416401863,1.292840004,-1.349383593,0.490115583, 
875,232615855,-0.469210297,0.609397173,-45.06735611,-0.089879252,-0.075973518,9.425076485,1.273924112,-1.282287002,0.496045321, 
876,232624188,-0.469065905,0.60957557,-45.0675354,-0.091827996,-0.082829222,9.406451225,1.31963253,-1.280967832,0.44918403, 
877,232632521,-0.468913466,0.610468507,-45.06914139,-0.083525494,-0.082181722,9.390462875,1.324319959,-1.193264604,0.532302201, 
878,232640854,-0.469173819,0.610688746,-45.06895065,-0.097277209,-0.06783241,9.426906586,1.270581245,-1.275870442,0.492497683, 
879,232649187,-0.469880521,0.610725105,-45.07079315,-0.083775207,-0.068024255,9.408250809,1.219698668,-1.296605587,0.483699232, 
880,232657520,-0.470290124,0.610388041,-45.07038498,-0.086792715,-0.077529311,9.407178879,1.252817869,-1.342378139,0.521095991, 
881,232665853,-0.469923645,0.610840082,-45.0721283,-0.082097165,-0.076465182,9.414352417,1.348973632,-1.247195601,0.509979427, 
882,232674186,-0.469690979,0.611212134,-45.07164764,-0.089985721,-0.079460911,9.437579155,1.330441833,-1.256608844,0.528818727, 
883,232682519,-0.469625443,0.611170709,-45.07312393,-0.088458166,-0.083262227,9.415970802,1.312908769,-1.305211663,0.474964738, 
884,232690852,-0.469952971,0.611761451,-45.07247162,-0.089203335,-0.090587452,9.41609478,1.261962056,-1.23139143,0.549015462, 
885,232699185,-0.469518572,0.612185776,-45.07304764,-0.082494654,-0.082662463,9.410425186,1.35622251,-1.251754761,0.557647467, 
886,232707518,-0.468181878,0.61147809,-45.07247925,-0.104652055,-0.074312329,9.409795761,1.462931395,-1.387023687,0.540255427, 
887,232715851,-0.46836549,0.611168861,-45.07411957,-0.100159414,-0.071903147,9.401808739,1.283747077,-1.337575316,0.473594397, 
888,232724184,-0.468547881,0.612053871,-45.07465363,-0.103746913,-0.095278449,9.425868988,1.281083107,-1.194314957,0.40884161, 
889,232732517,-0.46921286,0.611990392,-45.07518005,-0.11129079,-0.077911295,9.396624565,1.224706292,-1.309860826,0.545672894, 
890,232740850,-0.4689174,0.612056434,-45.07515335,-0.109239794,-0.087782614,9.415488243,1.336448312,-1.293045044,0.473683983, 
891,232749183,-0.469360083,0.611982882,-45.07668686,-0.092312269,-0.079684474,9.402375221,1.252126336,-1.30984807,0.459135205, 
892,232757516,-0.469191164,0.611988902,-45.0763855,-0.110938899,-0.06810385,9.421343803,1.322667837,-1.301241517,0.508570611, 
893,232765849,-0.469567925,0.611941695,-45.07740402,-0.093845904,-0.080795377,9.385272026,1.260015488,-1.305724025,0.510978341, 
894,232774182,-0.469411105,0.612168849,-45.07682037,-0.081508055,-0.071228817,9.4009552,1.321310401,-1.275319934,0.541151941, 
895,232782515,-0.469568908,0.611844301,-45.07722855,-0.100574687,-0.058386289,9.416032791,1.284246445,-1.34064889,0.536669433, 
896,232790848,-0.469010085,0.612229049,-45.0774765,-0.097007416,-0.068904079,9.398967743,1.369644284,-1.255699396,0.441205174, 
897,232799181,-0.468764812,0.612341166,-45.07862091,-0.097887024,-0.072413787,9.441856384,1.334552884,-1.28712821,0.486568123, 
898,232807514,-0.468902856,0.612193942,-45.07873535,-0.080607638,-0.086657219,9.4078722,1.286423683,-1.319504261,0.457086027, 
899,232815847,-0.469115376,0.61315316,-45.07957458,-0.106342979,-0.079702549,9.408205032,1.278150439,-1.186400175,0.562078774, 
900,232824180,-0.469057262,0.613804758,-45.07917023,-0.079545133,-0.100361452,9.435779572,1.309514999,-1.224181175,0.517983913, 
901,232832513,-0.468299538,0.614252806,-45.07998657,-0.085337974,-0.088101998,9.408967018,1.395258546,-1.246350169,0.542304516, 
902,232840846,-0.467842519,0.613719344,-45.07995605,-0.087281935,-0.094692081,9.412974358,1.357605815,-1.366583467,0.474939197, 
903,232849179,-0.468031943,0.614043117,-45.08009338,-0.081303462,-0.094419569,9.404998779,1.280135393,-1.263140321,0.631301224, 
904,232857512,-0.46725148,0.613822997,-45.08047104,-0.07911133,-0.100893013,9.400672913,1.397525549,-1.327585697,0.425183475, 
905,232865845,-0.467717797,0.61389029,-45.08119202,-0.084454276,-0.069020934,9.41014576,1.24901402,-1.292468548,0.529151618, 
906,232874178,-0.468209535,0.614950478,-45.08044434,-0.09244559,-0.08104527,9.402968407,1.242226243,-1.175513983,0.560913324, 
907,232882511,-0.467871904,0.61486572,-45.08187866,-0.109640226,-0.087198414,9.417139053,1.34483695,-1.309963226,0.515781045, 
908,232890844,-0.467335254,0.614643455,-45.08108139,-0.100546211,-0.071839541,9.432407379,1.365187407,-1.32931459,0.566945434, 
909,232899177,-0.4683505,0.614701629,-45.08224487,-0.091634013,-0.08817564,9.415429115,1.183915496,-1.29445374,0.483801633, 
910,232907510,-0.469298571,0.615183115,-45.08183289,-0.102998458,-0.072023414,9.43047142,1.188743949,-1.243520021,0.520263612, 
911,232915843,-0.468856692,0.615770042,-45.08359909,-0.080356017,-0.063929431,9.419915199,1.358309984,-1.23020041,0.431689501, 
912,232924176,-0.469643503,0.615850687,-45.0842247,-0.08472167,-0.084802091,9.426836967,1.209568143,-1.291239142,0.397033423, 
913,232932509,-0.469631433,0.616210401,-45.08610153,-0.101628713,-0.092628151,9.420568466,1.307132959,-1.255917311,0.383842111, 
914,232940842,-0.469665319,0.616975367,-45.08629227,-0.096117824,-0.073705345,9.413189888,1.297693968,-1.210336685,0.448453993, 
915,232949175,-0.469435662,0.617037416,-45.08734131,-0.097201005,-0.06574323,9.416405678,1.333015919,-1.294146419,0.523759842, 
916,232957508,-0.469443709,0.617199898,-45.08731461,-0.077505052,-0.079255775,9.408265114,1.301049471,-1.280955195,0.474196285, 
917,232965841,-0.469171792,0.616394281,-45.08874512,-0.087175705,-0.078786284,9.429466248,1.3384974,-1.398012042,0.434878469, 
918,232974174,-0.469085664,0.617088199,-45.08909988,-0.088113941,-0.07406871,9.433343887,1.314202309,-1.217418909,0.431125969, 
919,232982507,-0.46886161,0.617064655,-45.09061432,-0.090580791,-0.08650554,9.415793419,1.333054423,-1.302253366,0.431971222, 
920,232990840,-0.468973666,0.617239118,-45.09041595,-0.097425729,-0.076752156,9.416043282,1.287922025,-1.282197237,0.493650317, 
921,232999173,-0.469058871,0.617354214,-45.0933342,-0.081139065,-0.072686516,9.401684761,1.296554208,-1.285373688,0.385737598, 
922,233007506,-0.468655556,0.61714083,-45.09254074,-0.094257198,-0.082337223,9.396943092,1.349127412,-1.327393651,0.566638052, 
923,233015839,-0.468476653,0.616971672,-45.09386063,-0.071247555,-0.083849877,9.435216904,1.327278376,-1.320682764,0.503550231, 
924,233024172,-0.468375474,0.617551863,-45.0929718,-0.092844583,-0.101034969,9.416417122,1.313574791,-1.232723594,0.577959597, 
925,233032505,-0.468224198,0.617379129,-45.09464645,-0.081865869,-0.091397204,9.390706062,1.322642207,-1.32198894,0.525578439, 
926,233040838,-0.468637526,0.616810024,-45.09451294,-0.099318214,-0.07374052,9.401000023,1.251639485,-1.370912313,0.48820731, 
927,233049171,-0.468528211,0.617223859,-45.09690857,-0.097408071,-0.095824227,9.412734985,1.320439458,-1.248834848,0.398634344, 
928,233057504,-0.468294859,0.617594481,-45.09695816,-0.110192224,-0.087802351,9.41247654,1.329327464,-1.258209586,0.464821488, 
929,233065837,-0.46874699,0.61723876,-45.09787369,-0.092940971,-0.082919993,9.403425217,1.251588464,-1.34224987,0.513872802, 
930,233074170,-0.468268394,0.617351055,-45.09724045,-0.089926995,-0.078317516,9.39895153,1.358643174,-1.289984107,0.545980275, 
931,233082503,-0.467515886,0.616840243,-45.09890366,-0.088862598,-0.069940232,9.424414635,1.394579768,-1.362088203,0.511170506, 
932,233090836,-0.467826724,0.617571652,-45.09820938,-0.093079083,-0.076765068,9.425255775,1.264549136,-1.213384748,0.555854499, 
933,233099169,-0.468663722,0.616843581,-45.09989166,-0.100237183,-0.069460914,9.403260231,1.204791069,-1.387894511,0.449401736, 
934,233107502,-0.468421757,0.617086112,-45.09914017,-0.096709937,-0.067871161,9.402986526,1.330838919,-1.273066044,0.560260177, 
935,233115835,-0.468350351,0.616740763,-45.09980774,-0.09611012,-0.080672696,9.424696922,1.313318849,-1.342352509,0.51835531, 
936,233124168,-0.468852729,0.6170187,-45.10053253,-0.081507064,-0.084854275,9.425328255,1.242648959,-1.26775074,0.384111047, 
937,233132501,-0.468817353,0.61720711,-45.10178757,-0.090522468,-0.092817672,9.400679588,1.309041142,-1.277599573,0.483263731, 
