PacketCounter,SampleTimeFine,Euler_X,Euler_Y,Euler_Z,Acc_X,Acc_Y,Acc_Z,Gyr_X,Gyr_Y,Gyr_Z,Mag_X,Mag_Y,Mag_Z,
0,1368045482,-0.661685705,0.150159627,-170.7979736,0,0,0,0,0,0,-0.087402344,-0.413574219,-1.033203125, 
1,1368053815,-0.651670396,0.138219729,-170.7935791,-0.008399856,-0.104942031,9.402921677,1.201576352,-1.439314842,0.508148015,-0.086669922,-0.416015625,-1.032714844, 
2,1368062148,-0.641871333,0.125998512,-170.7897491,-0.024697654,-0.103312291,9.406620979,1.175321937,-1.470513225,0.444240481,-0.083984375,-0.413085938,-1.029296875, 
3,1368070481,-0.628926098,0.106269486,-170.7554626,-0.01908073,-0.107122615,9.441448212,1.254034758,-1.437701583,0.494982332,-0.084716797,-0.416992188,-1.033691406, 
4,1368078814,-0.618600488,0.094818085,-170.7524109,-0.017076798,-0.101678826,9.413989067,1.237564564,-1.37876308,0.350697309,-0.085449219,-0.411132813,-1.032226563, 
5,1368087147,-0.607215643,0.084132977,-170.7658081,-0.024375452,-0.105441332,9.43784523,1.262230992,-1.365597248,0.445777327,-0.086425781,-0.416015625,-1.034912109, 
6,1368095480,-0.596675336,0.072584122,-170.7614136,-0.03907137,-0.112945877,9.41044426,1.263947248,-1.391775012,0.51462841,-0.086181641,-0.417480469,-1.03125, 
7,1368103813,-0.586997271,0.065971799,-170.7480469,-0.044550821,-0.113005668,9.419651031,1.332798243,-1.380325556,0.521134436,-0.086914063,-0.412109375,-1.029296875, 
8,1368112146,-0.576500297,0.054863606,-170.7439117,-0.038939197,-0.098326951,9.410493851,1.25900352,-1.337703347,0.483455837,-0.086914063,-0.412109375,-1.03125, 
9,1368120479,-0.574760079,0.061892375,-170.7221222,-0.01327257,-0.109397151,9.448936462,1.293467879,-1.375381947,0.517894268,-0.0859375,-0.414550781,-1.033691406, 
10,1368128812,-0.564274371,0.050951209,-170.717514,-0.009665462,-0.109526172,9.399525642,1.257441282,-1.317980409,0.539192438,-0.085205078,-0.416992188,-1.030273438, 
11,1368137145,-0.561184406,0.053886879,-170.7151337,-0.026202956,-0.118850626,9.399621964,1.304827452,-1.426277399,0.460556716,-0.088623047,-0.416503906,-1.035888672, 
12,1368145478,-0.54968071,0.041339975,-170.710907,-0.011426338,-0.095101014,9.42701149,1.38023591,-1.509882331,0.493317366,-0.086914063,-0.414550781,-1.030761719, 
13,1368153811,-0.54936868,0.040019281,-170.6887512,-0.027572442,-0.105910674,9.416144371,1.227882385,-1.347513795,0.488425076,-0.0859375,-0.415527344,-1.032714844, 
14,1368162144,-0.538741052,0.028779389,-170.6844635,-0.001936245,-0.091409184,9.425200462,1.275396705,-1.354070783,0.501462698,-0.086914063,-0.415039063,-1.032714844, 
15,1368170477,-0.536681294,0.023764569,-170.6873322,-0.001942804,-0.106448129,9.403305054,1.158928752,-1.568718195,0.524976492,-0.085449219,-0.413574219,-1.031738281, 
16,1368178810,-0.526248276,0.012336893,-170.6825562,-0.00714643,-0.095460288,9.417969704,1.252574325,-1.375279307,0.558889747,-0.088623047,-0.416015625,-1.033203125, 
17,1368187143,-0.521918595,0.004318968,-170.6888885,-0.012555646,-0.11025928,9.421748161,1.248988509,-1.485318303,0.442703635,-0.086181641,-0.416015625,-1.032226563, 
18,1368195476,-0.511060536,-0.007893098,-170.6854706,-0.014219245,-0.119477831,9.42548275,1.302983403,-1.469078779,0.395035505,-0.084960938,-0.412597656,-1.03515625, 
19,1368203809,-0.506955564,-0.015997764,-170.6933899,-0.030455366,-0.093900479,9.412672043,1.199783564,-1.427942276,0.418139577,-0.0859375,-0.416015625,-1.033203125, 
20,1368212142,-0.495682299,-0.028055826,-170.6894379,-0.024865996,-0.104949452,9.4438591,1.35234201,-1.450918436,0.462068021,-0.087402344,-0.414550781,-1.032714844, 
21,1368220475,-0.491259009,-0.034540199,-170.6984253,-0.039323512,-0.103034958,9.440314293,1.28195405,-1.37376833,0.488322616,-0.087402344,-0.411621094,-1.030273438, 
22,1368228808,-0.481014252,-0.046149615,-170.6942139,-0.035837695,-0.101537533,9.389057159,1.231135368,-1.398306727,0.493419796,-0.087890625,-0.414550781,-1.031738281, 
23,1368237141,-0.475580782,-0.051518265,-170.6890259,-0.033985481,-0.11805281,9.40930748,1.394759059,-1.43147707,0.384866714,-0.081542969,-0.416015625,-1.029296875, 
24,1368245474,-0.464689165,-0.063479088,-170.6841278,-0.026501955,-0.112553693,9.411129951,1.306723118,-1.440826535,0.575308621,-0.086181641,-0.416503906,-1.03125, 
25,1368253807,-0.460565597,-0.067436859,-170.7250977,-0.029981485,-0.09971755,9.405635834,1.291738629,-1.393516779,0.467011511,-0.086425781,-0.415039063,-1.031738281, 
26,1368262140,-0.450271964,-0.078626841,-170.7212219,-0.029724538,-0.105085187,9.431344032,1.236027598,-1.34592545,0.453922629,-0.0859375,-0.4140625,-1.033203125, 
27,1368270473,-0.445810854,-0.082213193,-170.7274628,-0.020797674,-0.11087548,9.411221504,1.331133485,-1.383681059,0.486555248,-0.091064453,-0.415039063,-1.032226563, 
28,1368278806,-0.435802728,-0.09435863,-170.7228699,-0.013079423,-0.092514038,9.444076538,1.203343868,-1.462060571,0.537988544,-0.085449219,-0.411621094,-1.036865234, 
29,1368287139,-0.431725234,-0.099640518,-170.7016602,-0.027720481,-0.100112364,9.429602623,1.291354418,-1.583881736,0.406946123,-0.086914063,-0.413085938,-1.034179688, 
30,1368295472,-0.421371907,-0.111838073,-170.69841,-0.030981373,-0.090919062,9.427785873,1.243840218,-1.465877175,0.380461037,-0.088623047,-0.416992188,-1.033935547, 
31,1368303805,-0.416040123,-0.115877509,-170.7003632,-0.010912725,-0.105719388,9.420475006,1.385204911,-1.401790142,0.476514399,-0.087402344,-0.413085938,-1.03515625, 
32,1368312138,-0.406526417,-0.127927288,-170.6959991,-0.025181117,-0.118426993,9.437179565,1.142689347,-1.450585365,0.513629436,-0.084960938,-0.413574219,-1.034179688, 
33,1368320471,-0.402055144,-0.13219817,-170.69841,-0.019516855,-0.100254431,9.442563057,1.248937249,-1.408398628,0.414707273,-0.085449219,-0.415039063,-1.032226563, 
34,1368328804,-0.391534984,-0.144135222,-170.6944733,-0.026992792,-0.118835524,9.422652245,1.263844728,-1.436113238,0.463937819,-0.0859375,-0.414550781,-1.032714844, 
35,1368337137,-0.386624992,-0.148624346,-170.7067413,-0.036265913,-0.108077936,9.39522934,1.327777863,-1.421462059,0.458686918,-0.090820313,-0.414550781,-1.033203125, 
36,1368345470,-0.375688583,-0.160205901,-170.7035065,0.006162189,-0.106190741,9.415086746,1.314355969,-1.392210484,0.379999965,-0.087402344,-0.415039063,-1.034912109, 
37,1368353803,-0.371085137,-0.16433318,-170.7001648,-0.015669532,-0.104257256,9.426283836,1.319453239,-1.403557539,0.420982748,-0.0859375,-0.415039063,-1.030273438, 
38,1368362136,-0.361236423,-0.175827101,-170.6971588,-0.017202977,-0.113320068,9.437407494,1.183134198,-1.382297754,0.352618366,-0.088623047,-0.415527344,-1.031738281, 
39,1368370469,-0.356462687,-0.180980936,-170.7134399,-0.010335854,-0.102959044,9.397026062,1.337741852,-1.460677385,0.494854242,-0.086669922,-0.416503906,-1.032714844, 
40,1368378802,-0.345795214,-0.192054212,-170.7092438,0.004709117,-0.113673046,9.422670364,1.28215909,-1.331069469,0.496263027,-0.087890625,-0.413574219,-1.03125, 
41,1368387135,-0.3421354,-0.196718603,-170.7178192,-0.028421789,-0.117539607,9.399243355,1.208210588,-1.375330687,0.468881339,-0.087402344,-0.414550781,-1.031738281, 
42,1368395468,-0.33147642,-0.208916754,-170.7142029,-0.050179459,-0.108371273,9.421410561,1.280032992,-1.467414021,0.426310509,-0.087158203,-0.419433594,-1.031738281, 
43,1368403801,-0.327690929,-0.2146063,-170.7225647,-0.031621292,-0.106633916,9.426779747,1.245786786,-1.472126961,0.467498213,-0.087158203,-0.417480469,-1.034912109, 
44,1368412134,-0.317086935,-0.226471841,-170.7184448,-0.020391619,-0.103007205,9.435854912,1.275473714,-1.426200509,0.485197634,-0.086425781,-0.414550781,-1.032714844, 
45,1368420467,-0.312791526,-0.231571957,-170.7382202,-0.021999877,-0.10844893,9.450618744,1.303239584,-1.450892925,0.473671287,-0.085449219,-0.413574219,-1.032714844, 
46,1368428800,-0.301610172,-0.242955402,-170.7339478,-0.023997396,-0.106815986,9.42505455,1.344478369,-1.368850231,0.504229009,-0.084960938,-0.415039063,-1.033203125, 
47,1368437133,-0.297012001,-0.247436807,-170.7712555,-0.016584922,-0.104954205,9.426841736,1.332823753,-1.370617628,0.468266636,-0.086425781,-0.414550781,-1.031738281, 
48,1368445466,-0.285882324,-0.259172291,-170.767334,-0.027938141,-0.105296522,9.390407562,1.339278817,-1.413265347,0.463502347,-0.084960938,-0.414550781,-1.03515625, 
49,1368453799,-0.281802267,-0.264156193,-170.7715454,-0.016239811,-0.103029512,9.441604614,1.264024258,-1.424510121,0.488553137,-0.087158203,-0.416503906,-1.033691406, 
50,1368462132,-0.27080366,-0.276188165,-170.7681732,-0.020328835,-0.096242025,9.392191887,1.322526932,-1.446384668,0.40143913,-0.084960938,-0.415039063,-1.034179688, 
51,1368470465,-0.266702771,-0.281391978,-170.7827454,-0.008922292,-0.096125178,9.414099693,1.260540366,-1.449202061,0.462477833,-0.083007813,-0.415527344,-1.034179688, 
52,1368478798,-0.255529404,-0.292745024,-170.778717,-0.008630321,-0.106861226,9.439909935,1.344427228,-1.365674376,0.481227487,-0.088134766,-0.414550781,-1.029785156, 
53,1368487131,-0.250826687,-0.298997402,-170.7759857,-0.005110146,-0.105384767,9.421595573,1.312870383,-1.560752153,0.472569793,-0.084960938,-0.4140625,-1.031738281, 
54,1368495464,-0.240592644,-0.31025812,-170.7718964,-0.014132329,-0.094476879,9.397850037,1.233005166,-1.355556488,0.488399416,-0.088867188,-0.415039063,-1.036865234, 
55,1368503797,-0.236534148,-0.31486088,-170.8014679,-0.006566947,-0.114482202,9.42551136,1.234926224,-1.342262745,0.530919015,-0.088134766,-0.416503906,-1.032226563, 
56,1368512130,-0.227667436,-0.326251566,-170.7973785,-0.028521325,-0.131131947,9.418693542,1.069048524,-1.370028377,0.491088897,-0.0859375,-0.415527344,-1.035888672, 
57,1368520463,-0.222832963,-0.332351953,-170.8040924,-0.002691991,-0.105748318,9.44562149,1.328213215,-1.509498119,0.562398911,-0.085449219,-0.413085938,-1.031738281, 
58,1368528796,-0.211727589,-0.343991101,-170.800293,-0.01547562,-0.114892282,9.431305885,1.336025715,-1.400253415,0.460095674,-0.0859375,-0.413574219,-1.030273438, 
59,1368537129,-0.208069295,-0.348941743,-170.8124847,-0.024448585,-0.103907667,9.427694321,1.202063203,-1.366826892,0.523055494,-0.086669922,-0.416015625,-1.033203125, 
60,1368545462,-0.197801203,-0.361030161,-170.8089752,-0.0301178,-0.115214556,9.416987419,1.237308264,-1.455989838,0.423313618,-0.086425781,-0.411621094,-1.033203125, 
61,1368553795,-0.194031715,-0.366238385,-170.8192139,-0.029828487,-0.126145557,9.428178787,1.214409232,-1.398639679,0.414963394,-0.087158203,-0.41796875,-1.031738281, 
62,1368562128,-0.184234768,-0.378881216,-170.8147736,-0.015023567,-0.119111054,9.435289383,1.182186604,-1.522407651,0.53724575,-0.086669922,-0.416015625,-1.032226563, 
63,1368570461,-0.180143192,-0.384773701,-170.8310242,0.006795979,-0.097786993,9.400000572,1.266483068,-1.494001508,0.392218024,-0.085205078,-0.417480469,-1.029296875, 
64,1368578794,-0.169183522,-0.39670223,-170.8283691,-0.029646134,-0.090318836,9.398652077,1.320285678,-1.435472965,0.324301839,-0.087646484,-0.417480469,-1.03125, 
65,1368587127,-0.165041044,-0.401885629,-170.8450317,-0.005597059,-0.075764999,9.401871681,1.273731947,-1.395233035,0.455510765,-0.083496094,-0.413574219,-1.033691406, 
66,1368595460,-0.155457243,-0.413727641,-170.8410034,-0.006471146,-0.067897409,9.454959869,1.157520175,-1.425918937,0.489270359,-0.082519531,-0.413574219,-1.036132813, 
67,1368603793,-0.150033325,-0.420078397,-170.8595428,-0.021271626,-0.110089108,9.466761589,1.40166223,-1.536188245,0.507930279,-0.086425781,-0.414550781,-1.030273438, 
68,1368612126,-0.139184788,-0.432142019,-170.8556213,-0.032113038,-0.100926004,9.448566437,1.308182955,-1.452557564,0.478563547,-0.084472656,-0.415527344,-1.030761719, 
69,1368620459,-0.135102287,-0.438052744,-170.8666077,-0.027549163,-0.112979777,9.375486374,1.2243222,-1.482039809,0.449850023,-0.085449219,-0.4140625,-1.032226563, 
70,1368628792,-0.125450432,-0.449446082,-170.863327,-0.035556577,-0.095775746,9.428576469,1.165229917,-1.372359395,0.405306816,-0.089111328,-0.416503906,-1.034912109, 
71,1368637125,-0.12070629,-0.454704374,-170.8734894,-0.042363666,-0.091788135,9.467158318,1.304238319,-1.413931251,0.370087266,-0.086425781,-0.4140625,-1.032714844, 
72,1368645458,-0.110445596,-0.46688959,-170.8698273,-0.019041121,-0.099846065,9.430345535,1.239152551,-1.467311382,0.452949286,-0.085449219,-0.4140625,-1.033691406, 
73,1368653791,-0.105733968,-0.471852094,-170.8848114,-0.017240943,-0.114640914,9.425113678,1.293352365,-1.398665309,0.443830639,-0.086914063,-0.412597656,-1.031738281, 
74,1368662124,-0.095583811,-0.48290056,-170.8806458,-0.017311439,-0.103866711,9.410390854,1.226857781,-1.330813169,0.5143978,-0.083984375,-0.4140625,-1.032714844, 
75,1368670457,-0.090441212,-0.487713069,-170.8908997,-0.015024138,-0.11808487,9.452758789,1.348064303,-1.380299926,0.515422404,-0.084960938,-0.4140625,-1.035888672, 
76,1368678790,-0.079672307,-0.499357313,-170.886795,-0.019175177,-0.129522324,9.420100212,1.30203557,-1.404812455,0.506124437,-0.090087891,-0.416992188,-1.033447266, 
77,1368687123,-0.074576348,-0.504289448,-170.9090424,-0.012385937,-0.111841187,9.379526138,1.34750104,-1.392236352,0.449952483,-0.084960938,-0.413574219,-1.034179688, 
78,1368695456,-0.064795129,-0.515580833,-170.9052887,-0.011532294,-0.111262552,9.418059349,1.18374908,-1.362164974,0.465807647,-0.086181641,-0.416015625,-1.03125, 
79,1368703789,-0.059945162,-0.519943953,-170.9177399,-0.018345676,-0.101679087,9.452907562,1.329954982,-1.324717045,0.483993769,-0.084960938,-0.416503906,-1.034179688, 
80,1368712122,-0.049637418,-0.531327784,-170.9142761,-0.013891804,-0.133705914,9.398441315,1.247400403,-1.372436404,0.432611585,-0.088134766,-0.416503906,-1.030761719, 
81,1368720455,-0.045662522,-0.536373496,-170.9299316,-0.01714329,-0.100698583,9.4090662,1.227574944,-1.405248165,0.423159957,-0.083984375,-0.416503906,-1.033691406, 
82,1368728788,-0.035690509,-0.547552943,-170.9256134,-0.021764481,-0.11100743,9.458859444,1.207365274,-1.350228786,0.534402549,-0.088134766,-0.415527344,-1.031738281, 
83,1368737121,-0.0310288,-0.552518427,-170.9459381,-0.018651366,-0.118907325,9.435184479,1.320106387,-1.395027995,0.502628148,-0.084960938,-0.412597656,-1.030273438, 
84,1368745454,-0.020100823,-0.563325644,-170.9415588,-0.048088066,-0.098796085,9.418999672,1.322347641,-1.304533005,0.54452014,-0.0859375,-0.413085938,-1.035644531, 
85,1368753787,-0.015980391,-0.568157017,-170.9522705,-0.02458233,-0.115687519,9.406115532,1.260668397,-1.38386023,0.452232122,-0.086181641,-0.416503906,-1.032226563, 
86,1368762120,-0.005633941,-0.579114318,-170.9490509,-0.016820952,-0.109952278,9.424283981,1.252190351,-1.32351315,0.405921549,-0.085205078,-0.416992188,-1.032714844, 
87,1368770453,-0.001331572,-0.584203541,-170.9636536,-0.018433336,-0.071631014,9.427424431,1.283234715,-1.425099254,0.427796125,-0.0859375,-0.413085938,-1.035644531, 
88,1368778786,0.009023586,-0.596039176,-170.9598083,-0.015205787,-0.112293907,9.411636353,1.255904317,-1.429453731,0.483840108,-0.086425781,-0.413085938,-1.03515625, 
89,1368787119,0.013558159,-0.601168096,-170.9673615,-0.015196216,-0.097870357,9.404165268,1.305134773,-1.43119514,0.489936262,-0.087890625,-0.4140625,-1.032226563, 
90,1368795452,0.023917088,-0.613141954,-170.9638367,-0.03122304,-0.103020646,9.421129227,1.257108092,-1.447793245,0.447903335,-0.084960938,-0.415039063,-1.031738281, 
91,1368803785,0.028203119,-0.618561745,-170.9706573,-0.023053873,-0.08977323,9.453806877,1.274756432,-1.466235638,0.408559829,-0.085449219,-0.414550781,-1.033691406, 
92,1368812118,0.03833019,-0.62945509,-170.9663086,-0.040492162,-0.110681958,9.403320313,1.230674148,-1.317340016,0.547030389,-0.084472656,-0.4140625,-1.033691406, 
93,1368820451,0.041660711,-0.634625554,-170.9820099,-0.02764152,-0.112833411,9.405028343,1.159594893,-1.445129395,0.532455862,-0.088623047,-0.415527344,-1.033203125, 
94,1368828784,0.05219635,-0.646064937,-170.9776611,-0.025464928,-0.112701826,9.42155838,1.281262517,-1.383091927,0.545493603,-0.086425781,-0.414550781,-1.031738281, 
95,1368837117,0.056296822,-0.650295138,-170.9889069,-0.021716796,-0.109086066,9.419683456,1.257569313,-1.341187,0.456817031,-0.088378906,-0.4140625,-1.034179688, 
96,1368845450,0.066709071,-0.662120998,-170.9851074,-0.03071175,-0.103578202,9.427186966,1.265714526,-1.431169629,0.482123911,-0.0859375,-0.413574219,-1.036865234, 
97,1368853783,0.071899414,-0.667006493,-170.9935303,-0.019909894,-0.123897992,9.425593376,1.393785715,-1.424894333,0.497159541,-0.087646484,-0.415527344,-1.030761719, 
98,1368862116,0.082835406,-0.678856909,-170.9903259,-0.010576882,-0.118394852,9.42358017,1.328904867,-1.433679938,0.411018819,-0.086914063,-0.415039063,-1.033691406, 
99,1368870449,0.08721333,-0.684561849,-170.9992218,-0.003018431,-0.114807762,9.427111626,1.300729036,-1.528631926,0.412222654,-0.082763672,-0.418457031,-1.034912109, 
100,1368878782,0.097967394,-0.696682096,-170.9953461,-0.023450386,-0.116942987,9.403875351,1.309950352,-1.467285752,0.49185735,-0.086425781,-0.4140625,-1.034179688, 
101,1368887115,0.102231339,-0.700928152,-171.0245972,-0.003220776,-0.104340829,9.395982742,1.295785785,-1.350715637,0.503972948,-0.090576172,-0.416015625,-1.029785156, 
102,1368895448,0.112641402,-0.712465942,-171.0209351,-0.024939328,-0.111327656,9.409498215,1.268967509,-1.398511529,0.468702048,-0.084960938,-0.414550781,-1.033691406, 
103,1368903781,0.117043018,-0.717225373,-171.0300293,-0.021562854,-0.122630253,9.400587082,1.318812847,-1.414494872,0.532251,-0.085205078,-0.416015625,-1.030273438, 
104,1368912114,0.128011331,-0.728682935,-171.0267639,-0.017057953,-0.10922692,9.429639816,1.335718274,-1.389367461,0.420342445,-0.086914063,-0.415527344,-1.035400391, 
105,1368920447,0.131643891,-0.732740879,-171.0514526,-0.022783393,-0.111291438,9.415263176,1.234234691,-1.335142016,0.563551605,-0.084472656,-0.416015625,-1.034179688, 
106,1368928780,0.142388299,-0.744782329,-171.0475616,-0.022498406,-0.113008201,9.431871414,1.311717749,-1.460702777,0.498363316,-0.086181641,-0.418457031,-1.033203125, 
107,1368937113,0.146492884,-0.749535739,-171.0603333,-0.02011106,-0.110836253,9.448371887,1.293813348,-1.422921777,0.498184025,-0.087646484,-0.415527344,-1.032226563, 
108,1368945446,0.157463804,-0.760628641,-171.0563354,-0.044238288,-0.105487853,9.43060112,1.340149641,-1.347565055,0.509992242,-0.083007813,-0.412597656,-1.034667969, 
109,1368953779,0.161560982,-0.765418887,-171.0676575,-0.035498366,-0.115139939,9.412389755,1.299538136,-1.431861401,0.42775771,-0.0859375,-0.415527344,-1.034667969, 
110,1368962112,0.172250435,-0.776626229,-171.0637054,-0.014721572,-0.094770156,9.429909706,1.30728662,-1.36385572,0.507277131,-0.086914063,-0.414550781,-1.032226563, 
111,1368970445,0.175914153,-0.7806952,-171.0780945,-0.01687751,-0.120583095,9.421450615,1.252830505,-1.357426405,0.47666809,-0.089355469,-0.414550781,-1.034423828, 
112,1368978778,0.186375514,-0.792465925,-171.0749054,-0.019155851,-0.099299632,9.395498276,1.279776812,-1.431912541,0.418113947,-0.084472656,-0.4140625,-1.03125, 
113,1368987111,0.190473005,-0.79641068,-171.0835419,-0.01891591,-0.099132605,9.402929306,1.308464646,-1.346335292,0.459532142,-0.087890625,-0.412597656,-1.032226563, 
114,1368995444,0.200916246,-0.808238506,-171.0797272,-0.018355085,-0.102408111,9.426906586,1.280596495,-1.441005468,0.49201104,-0.0859375,-0.415527344,-1.032226563, 
115,1369003777,0.20444347,-0.813126445,-171.0908051,-0.032821752,-0.093266189,9.425333023,1.242841244,-1.463776588,0.49434188,-0.085449219,-0.413574219,-1.036865234, 
116,1369012110,0.215104446,-0.825258672,-171.0870819,-0.014731086,-0.099251643,9.414136887,1.308157325,-1.477301002,0.480587065,-0.088378906,-0.41015625,-1.030273438, 
117,1369020443,0.218881875,-0.829404294,-171.1011658,-0.005203837,-0.093666211,9.419392586,1.276165128,-1.383373499,0.512732923,-0.090576172,-0.416992188,-1.030761719, 
118,1369028776,0.229330599,-0.840806723,-171.0971832,-0.023342142,-0.082555197,9.421539307,1.282722473,-1.389956474,0.5143978,-0.087158203,-0.418457031,-1.031738281, 
119,1369037109,0.2325847,-0.844399273,-171.1076813,-0.023235971,-0.115282312,9.431537628,1.215049624,-1.319850326,0.452129662,-0.087158203,-0.415527344,-1.030273438, 
120,1369045442,0.243169114,-0.855566919,-171.1042023,-0.004925118,-0.111877613,9.434760094,1.300114512,-1.364470243,0.454870373,-0.087402344,-0.4140625,-1.034667969, 
121,1369053775,0.246819958,-0.859623849,-171.1155701,-0.012363693,-0.115638204,9.431492805,1.266687989,-1.3814013,0.535836935,-0.086914063,-0.413574219,-1.034179688, 
122,1369062108,0.25752461,-0.870806038,-171.111969,-0.000887398,-0.109894328,9.447655678,1.315047622,-1.367620707,0.471084177,-0.088623047,-0.415527344,-1.033203125, 
123,1369070441,0.261367977,-0.874916613,-171.1253204,-0.02896294,-0.112104125,9.42291069,1.296426296,-1.390981078,0.430588126,-0.088378906,-0.412597656,-1.033691406, 
124,1369078774,0.271448374,-0.887218416,-171.1220245,-0.038338501,-0.116076224,9.412368774,1.243558288,-1.503811598,0.435890228,-0.088867188,-0.414550781,-1.034179688, 
125,1369087107,0.275196165,-0.891155601,-171.1316833,-0.022712039,-0.108201869,9.441199303,1.292404532,-1.375458717,0.492779374,-0.086914063,-0.414550781,-1.029785156, 
126,1369095440,0.285145253,-0.902531683,-171.1277618,-0.010940242,-0.116822265,9.470539093,1.230264425,-1.393004537,0.511836469,-0.086181641,-0.416015625,-1.029296875, 
127,1369103773,0.289174944,-0.906359494,-171.1392975,-0.01299006,-0.105993606,9.3916502,1.335334182,-1.37371707,0.516780078,-0.090087891,-0.418457031,-1.031738281, 
128,1369112106,0.29952994,-0.918031991,-171.1358337,-0.019860877,-0.105638824,9.404774666,1.278598666,-1.429965973,0.45917356,-0.089111328,-0.416015625,-1.033203125, 
129,1369120439,0.303822428,-0.922428668,-171.1447601,-0.04143196,-0.096076451,9.416243553,1.373627305,-1.446743131,0.459762722,-0.083984375,-0.415039063,-1.032714844, 
130,1369128772,0.313618064,-0.933643639,-171.141037,-0.031958941,-0.101458319,9.419905663,1.213717699,-1.376765132,0.492215931,-0.086914063,-0.4140625,-1.032714844, 
131,1369137105,0.31635797,-0.937577069,-171.1576233,-0.028372509,-0.090883449,9.410505295,1.192381024,-1.402635455,0.38130632,-0.086914063,-0.415527344,-1.032226563, 
132,1369145438,0.326158464,-0.948483706,-171.1533966,-0.024023492,-0.108632371,9.44208622,1.21640718,-1.341571093,0.554048657,-0.084472656,-0.415039063,-1.034179688, 
133,1369153771,0.328861833,-0.952004254,-171.1664124,-0.029393641,-0.121354543,9.448177338,1.192842126,-1.361447692,0.400491357,-0.087402344,-0.415039063,-1.031738281, 
134,1369162104,0.339530975,-0.963440537,-171.162735,-0.031658594,-0.096404076,9.429395676,1.321784139,-1.406836152,0.48944959,-0.084472656,-0.413574219,-1.031738281, 
135,1369170437,0.342995226,-0.966206253,-171.1739197,-0.020677129,-0.100102484,9.427479744,1.294889212,-1.281762004,0.516113997,-0.086914063,-0.413085938,-1.035888672, 
136,1369178770,0.353118956,-0.978322983,-171.1708069,-0.015539546,-0.118812196,9.422422409,1.25649333,-1.490978956,0.422596425,-0.086914063,-0.412597656,-1.032226563, 
137,1369187103,0.357078999,-0.982333958,-171.1841278,-0.026459245,-0.115136348,9.420935631,1.359385848,-1.439776063,0.492625743,-0.088867188,-0.4140625,-1.032226563, 
138,1369195436,0.367172807,-0.993905246,-171.1810608,-0.018094877,-0.090824142,9.440373421,1.255084634,-1.427122712,0.418549389,-0.088134766,-0.416992188,-1.030761719, 
139,1369203769,0.369990528,-0.997495055,-171.1909485,-0.044351742,-0.111256525,9.423456192,1.233517647,-1.397999406,0.505381703,-0.087402344,-0.415039063,-1.03125, 
140,1369212102,0.380171657,-1.009046078,-171.1871033,-0.007630848,-0.118962385,9.428208351,1.269595146,-1.425944328,0.51338613,-0.089111328,-0.415039063,-1.030273438, 
141,1369220435,0.383301109,-1.01312542,-171.1995697,-0.020137042,-0.107851617,9.432070732,1.275806546,-1.468720198,0.504024088,-0.08984375,-0.413574219,-1.03125, 
142,1369228768,0.393983603,-1.025126457,-171.1964264,0.002191394,-0.089766599,9.432887077,1.330416203,-1.481450438,0.431254029,-0.086181641,-0.416992188,-1.030273438, 
143,1369237101,0.397766501,-1.028844118,-171.2055969,-0.016271103,-0.10794735,9.43039608,1.366352916,-1.432962656,0.515319884,-0.087402344,-0.414550781,-1.030273438, 
144,1369245434,0.407755673,-1.039963961,-171.2015839,-0.034190595,-0.09479177,9.432551384,1.250474095,-1.378045797,0.532737613,-0.087158203,-0.415527344,-1.028808594, 
145,1369253767,0.411323935,-1.043906212,-171.2155762,-0.02062591,-0.112358853,9.403417587,1.345400453,-1.465031624,0.442319393,-0.084960938,-0.415527344,-1.032714844, 
146,1369262100,0.421301782,-1.055310488,-171.212265,-0.047654137,-0.10275051,9.407791138,1.24909091,-1.415186405,0.452898055,-0.091552734,-0.417480469,-1.030761719, 
147,1369270433,0.424480379,-1.058766842,-171.2277832,-0.034269992,-0.102501176,9.424005508,1.305647135,-1.419489741,0.40128538,-0.087890625,-0.414550781,-1.032226563, 
148,1369278766,0.434490293,-1.071210384,-171.2247925,-0.03526466,-0.098358475,9.446041107,1.254431486,-1.540388823,0.415257961,-0.090576172,-0.415039063,-1.031738281, 
149,1369287099,0.4376297,-1.074755907,-171.2367096,-0.030045716,-0.104295254,9.4333601,1.31235826,-1.444053888,0.522850633,-0.091064453,-0.4140625,-1.030761719, 
150,1369295432,0.447863132,-1.085890532,-171.2329407,-0.033507522,-0.105986334,9.43548584,1.286257267,-1.385064244,0.510940015,-0.086425781,-0.415527344,-1.033691406, 
151,1369303765,0.450451583,-1.089086294,-171.2414703,-0.019620741,-0.108765773,9.409604073,1.253086805,-1.414623022,0.497133881,-0.090820313,-0.413574219,-1.036376953, 
152,1369312098,0.461098671,-1.101364493,-171.2383575,-0.020871118,-0.122928977,9.432172775,1.335077882,-1.525839925,0.433482498,-0.085449219,-0.413085938,-1.030761719, 
153,1369320431,0.464111,-1.104228616,-171.2478333,-0.006395371,-0.106989317,9.413064957,1.314279079,-1.386600971,0.417063773,-0.087402344,-0.412597656,-1.032226563, 
154,1369328764,0.4737477,-1.115056038,-171.2443085,-0.035291817,-0.126387134,9.429373741,1.217201352,-1.353917241,0.485376984,-0.086425781,-0.414550781,-1.029785156, 
155,1369337097,0.475630105,-1.118222237,-171.2558594,-0.024627425,-0.117962949,9.416079521,1.190997839,-1.432040691,0.514833331,-0.086914063,-0.415039063,-1.03125, 
156,1369345430,0.485483408,-1.129576325,-171.2521667,-0.013840791,-0.107572839,9.404561043,1.246759892,-1.417696595,0.508762717,-0.086181641,-0.416015625,-1.030273438, 
157,1369353763,0.488105536,-1.132323384,-171.2643433,-0.009383744,-0.126957566,9.434439659,1.292609453,-1.395130515,0.49949035,-0.087402344,-0.414550781,-1.032714844, 
158,1369362096,0.498794049,-1.14410305,-171.2606964,-0.015280788,-0.125540823,9.421909332,1.348038673,-1.472434282,0.502999544,-0.087402344,-0.415039063,-1.034912109, 
159,1369370429,0.501220226,-1.14654839,-171.2727814,-0.013174313,-0.138078049,9.427869797,1.281082988,-1.365802169,0.484506041,-0.087890625,-0.4140625,-1.033691406, 
160,1369378762,0.511660933,-1.157543182,-171.2698975,-0.026515217,-0.131194711,9.409923553,1.320759416,-1.381862283,0.411915272,-0.089111328,-0.416015625,-1.03125, 
161,1369387095,0.513761878,-1.160759807,-171.28125,-0.001746137,-0.119893871,9.432720184,1.258209586,-1.470026493,0.522517562,-0.088134766,-0.415527344,-1.03125, 
162,1369395428,0.523891747,-1.172320485,-171.2787628,-0.010651078,-0.114315905,9.432992935,1.283618927,-1.452813745,0.370958149,-0.086914063,-0.4140625,-1.032714844, 
163,1369403761,0.526628792,-1.174731493,-171.291687,-0.018254861,-0.098208688,9.418244362,1.348141313,-1.382707834,0.477052331,-0.088623047,-0.417480469,-1.032714844, 
164,1369412094,0.536291599,-1.185986161,-171.2883759,-0.012124416,-0.110526711,9.43688488,1.231314659,-1.418285728,0.466473639,-0.087646484,-0.416503906,-1.034912109, 
165,1369420427,0.538950741,-1.187719822,-171.2994995,-0.016211614,-0.109043732,9.426120758,1.351906538,-1.312294126,0.577536941,-0.086425781,-0.415039063,-1.032714844, 
166,1369428760,0.549099028,-1.198437333,-171.2957306,-0.012249003,-0.117870569,9.437408447,1.294991612,-1.353814602,0.523414016,-0.087402344,-0.413085938,-1.029296875, 
167,1369437093,0.55179882,-1.200531602,-171.3092499,-0.017380498,-0.088466384,9.438642502,1.363484144,-1.369055152,0.412606865,-0.088867188,-0.413085938,-1.032714844, 
168,1369445426,0.561562419,-1.211420894,-171.3062897,-0.029230634,-0.103678867,9.415864944,1.248937249,-1.378020167,0.427847356,-0.087890625,-0.415527344,-1.035888672, 
169,1369453759,0.563812673,-1.211824179,-171.3174438,-0.020088166,-0.103636079,9.417517662,1.322924018,-1.176154375,0.465974122,-0.086914063,-0.414550781,-1.033203125, 
170,1369462092,0.573812068,-1.222244143,-171.3145447,-0.025328793,-0.117823288,9.434786797,1.278636932,-1.325831175,0.421635896,-0.0859375,-0.412597656,-1.036865234, 
171,1369470425,0.575698912,-1.224030495,-171.3272095,-0.04251799,-0.101979725,9.411224365,1.288434267,-1.356888413,0.430127025,-0.087890625,-0.413085938,-1.034179688, 
172,1369478758,0.586132646,-1.23514533,-171.3241119,-0.026152326,-0.124063693,9.416981697,1.334386349,-1.410985827,0.449901193,-0.088623047,-0.415039063,-1.030273438, 
173,1369487091,0.587663651,-1.237133265,-171.3354797,-0.03474557,-0.112692706,9.426252365,1.261168242,-1.393913984,0.565716028,-0.088134766,-0.416992188,-1.030761719, 
174,1369495424,0.598430097,-1.247856617,-171.3325043,-0.024012404,-0.122092046,9.422654152,1.376957178,-1.368875861,0.433636189,-0.087158203,-0.416503906,-1.033203125, 
175,1369503757,0.599614203,-1.250111938,-171.345871,-0.026582647,-0.11939425,9.448489189,1.231621981,-1.440877676,0.489961863,-0.091064453,-0.415527344,-1.032226563, 
176,1369512090,0.610083699,-1.261601925,-171.3422546,-0.012277078,-0.109147616,9.434938431,1.346758008,-1.462470174,0.516088426,-0.087646484,-0.415527344,-1.03125, 
177,1369520423,0.611238599,-1.263422251,-171.3518372,-0.018964861,-0.115863241,9.448417664,1.243583918,-1.402993917,0.503870428,-0.087158203,-0.415527344,-1.029785156, 
178,1369528756,0.620314837,-1.273856401,-171.3486328,0.006155404,-0.102319941,9.425179482,1.180982709,-1.339291453,0.466268688,-0.085449219,-0.414550781,-1.031738281, 
179,1369537089,0.621678233,-1.275183797,-171.3621979,-0.005076305,-0.104284644,9.423957825,1.282235742,-1.356785893,0.536835909,-0.088623047,-0.416992188,-1.033203125, 
180,1369545422,0.631380856,-1.285428643,-171.359024,-0.008284365,-0.100258604,9.433278084,1.258132696,-1.318518281,0.462862015,-0.087890625,-0.414550781,-1.032714844, 
181,1369553755,0.632655978,-1.287540078,-171.370224,-0.001870039,-0.097677998,9.411066055,1.283977389,-1.461035848,0.577921152,-0.088867188,-0.411621094,-1.034179688, 
182,1369562088,0.642049432,-1.29922843,-171.366806,-0.030810263,-0.122604266,9.424185753,1.226499319,-1.494846702,0.497594923,-0.089355469,-0.414550781,-1.03125, 
183,1369570421,0.643962622,-1.300375342,-171.3770599,-0.019647351,-0.11174304,9.42355442,1.368376493,-1.356427312,0.495801955,-0.090087891,-0.415527344,-1.031738281, 
184,1369578754,0.653719068,-1.311749697,-171.3744965,-0.012925835,-0.118071213,9.454846382,1.270722389,-1.462470531,0.396201015,-0.087158203,-0.416992188,-1.03125, 
185,1369587087,0.654848635,-1.312904596,-171.3848572,-0.011748868,-0.109729223,9.432663918,1.292276621,-1.37136054,0.550001621,-0.086181641,-0.418457031,-1.033203125, 
186,1369595420,0.663965166,-1.322890043,-171.3813019,-0.017244162,-0.10247609,9.427286148,1.198630929,-1.297617197,0.51442349,-0.088134766,-0.416992188,-1.034423828, 
187,1369603753,0.664822578,-1.324404359,-171.3951111,-0.022907557,-0.093655631,9.423680305,1.271400809,-1.429453611,0.505484045,-0.086669922,-0.415527344,-1.030761719, 
188,1369612086,0.674779654,-1.335090637,-171.3917999,-0.041535571,-0.120912358,9.423714638,1.302560687,-1.384013891,0.489334345,-0.088623047,-0.415527344,-1.033203125, 
189,1369620419,0.675123274,-1.336158037,-171.4058838,-0.041201137,-0.111707538,9.425373077,1.219967484,-1.392005563,0.379590124,-0.086425781,-0.413574219,-1.031738281, 
190,1369628752,0.684734106,-1.347406268,-171.4024963,-0.042677131,-0.120592229,9.438742638,1.264536381,-1.455759287,0.499567151,-0.091064453,-0.416992188,-1.032714844, 
191,1369637085,0.685444534,-1.349013925,-171.4155884,-0.037544109,-0.108508751,9.421767235,1.279623032,-1.473356485,0.437247783,-0.087890625,-0.415527344,-1.033203125, 
192,1369645418,0.694826365,-1.359789491,-171.4126892,-0.030178765,-0.12141481,9.422111511,1.237641335,-1.404044271,0.44669944,-0.091064453,-0.416503906,-1.03125, 
193,1369653751,0.695212424,-1.360897899,-171.426178,-0.035856873,-0.118060358,9.415052414,1.254264951,-1.43147707,0.38614738,-0.087646484,-0.415527344,-1.030273438, 
194,1369662084,0.704903722,-1.371831298,-171.4232635,-0.03382574,-0.112616815,9.416773796,1.280148268,-1.425700903,0.446251184,-0.087402344,-0.415039063,-1.033691406, 
195,1369670417,0.705204844,-1.372673988,-171.4372864,-0.027964892,-0.114166491,9.378255844,1.260297179,-1.417543054,0.435032159,-0.088134766,-0.415527344,-1.030761719, 
196,1369678750,0.715353906,-1.383438587,-171.4347076,-0.028209064,-0.118221849,9.418919563,1.336934924,-1.410345316,0.410391241,-0.089599609,-0.415527344,-1.033203125, 
197,1369687083,0.715806067,-1.383943915,-171.4478607,-0.028353276,-0.118403621,9.413613319,1.296298027,-1.393568039,0.502717733,-0.086425781,-0.415039063,-1.030273438, 
198,1369695416,0.724736094,-1.394497633,-171.4464722,-0.019610537,-0.113805793,9.440771103,1.189819574,-1.388983011,0.268654913,-0.089599609,-0.416015625,-1.034423828, 
199,1369703749,0.725603521,-1.395179987,-171.4579163,0.005893089,-0.107123859,9.439599991,1.360384941,-1.429760933,0.520084202,-0.089599609,-0.415527344,-1.030761719, 
200,1369712082,0.734761834,-1.406010985,-171.4543915,-0.013939583,-0.101282418,9.440402031,1.22776711,-1.423779964,0.527678788,-0.088623047,-0.416015625,-1.033691406, 
201,1369720415,0.734446287,-1.407396913,-171.4662628,-0.007143697,-0.098531537,9.42365551,1.231302023,-1.530860424,0.418126792,-0.086425781,-0.414550781,-1.032714844, 
202,1369728748,0.743317485,-1.418219566,-171.4629822,-0.010999747,-0.10252925,9.414980888,1.197657704,-1.425765038,0.498798788,-0.086914063,-0.412109375,-1.032714844, 
203,1369737081,0.74325937,-1.417856693,-171.475235,-0.021410136,-0.101938449,9.428401947,1.27716434,-1.332759976,0.505202413,-0.086425781,-0.416503906,-1.035888672, 
204,1369745414,0.752652884,-1.429019809,-171.4722443,-0.018762682,-0.108487248,9.406692505,1.260566115,-1.472741842,0.467216492,-0.090087891,-0.416015625,-1.03125, 
205,1369753747,0.752462745,-1.42895174,-171.4866333,-0.010739291,-0.106279023,9.419281006,1.274551511,-1.384142041,0.475080013,-0.089111328,-0.415527344,-1.03125, 
206,1369762080,0.761253655,-1.439138532,-171.4839172,0.00301819,-0.127458364,9.445361137,1.191843152,-1.358117938,0.433713019,-0.085693359,-0.416015625,-1.031738281, 
207,1369770413,0.76113385,-1.438350916,-171.4971161,-0.01577479,-0.116793133,9.433095932,1.296298146,-1.313702941,0.394523263,-0.085205078,-0.416503906,-1.032226563, 
208,1369778746,0.770015478,-1.449337006,-171.4944916,-0.027271355,-0.120905459,9.42291069,1.205777407,-1.459985852,0.428846359,-0.08984375,-0.411621094,-1.031738281, 
209,1369787079,0.768950462,-1.450265765,-171.5087891,-0.029682377,-0.114510171,9.40459156,1.201525331,-1.532678723,0.484506041,-0.087402344,-0.4140625,-1.028808594, 
210,1369795412,0.778433621,-1.459774613,-171.5060272,-0.025741555,-0.107293479,9.446521759,1.282850623,-1.284784555,0.445060164,-0.088867188,-0.4140625,-1.030761719, 
211,1369803745,0.778374851,-1.459434867,-171.5190277,-0.010366501,-0.115756132,9.427993774,1.33953476,-1.398383498,0.526410878,-0.086181641,-0.416015625,-1.029785156, 
212,1369812078,0.788215518,-1.470133543,-171.5155792,-0.028613552,-0.115320161,9.386775017,1.331235886,-1.431041598,0.53217417,-0.087402344,-0.4140625,-1.03125, 
213,1369820411,0.787066221,-1.469526052,-171.529541,-0.043397333,-0.120933458,9.42271328,1.221658111,-1.382579446,0.454896003,-0.090576172,-0.417480469,-1.033935547, 
214,1369828744,0.795789123,-1.479670525,-171.526886,-0.028087355,-0.106278107,9.430792809,1.200039744,-1.37130928,0.437119693,-0.086914063,-0.414550781,-1.032226563, 
215,1369837077,0.794356227,-1.478516817,-171.5386353,0.001918609,-0.117044151,9.450231552,1.204727054,-1.335859179,0.488783598,-0.084960938,-0.413085938,-1.03125, 
216,1369845410,0.804647326,-1.489014864,-171.536499,-0.011507204,-0.097535312,9.433691978,1.38865006,-1.416569471,0.378066093,-0.087646484,-0.418457031,-1.031738281, 
217,1369853743,0.802811861,-1.487361193,-171.5498657,-0.015390107,-0.117602885,9.431215286,1.173669815,-1.291764259,0.549297273,-0.088134766,-0.415527344,-1.031738281, 
218,1369862076,0.811720848,-1.497540712,-171.5469055,-0.012309425,-0.114696808,9.420118332,1.232057452,-1.382144094,0.47928074,-0.086425781,-0.4140625,-1.033691406, 
219,1369870409,0.811077118,-1.497377634,-171.5594788,-0.008896381,-0.091784626,9.448547363,1.330364943,-1.485651374,0.508660316,-0.0859375,-0.414550781,-1.032226563, 
220,1369878742,0.820383549,-1.507737517,-171.5558777,-0.013569533,-0.101777382,9.425503731,1.28456676,-1.407194853,0.558966696,-0.086669922,-0.415527344,-1.030761719, 
221,1369887075,0.819458246,-1.507136226,-171.5690613,-0.022181759,-0.10304895,9.437148094,1.310770035,-1.449637532,0.500181973,-0.087158203,-0.415039063,-1.029296875, 
222,1369895408,0.828854382,-1.517929673,-171.5658569,0.003042025,-0.098522581,9.423138618,1.297937393,-1.463930368,0.51718986,-0.087890625,-0.416015625,-1.035400391, 
223,1369903741,0.827125728,-1.517003655,-171.5781097,0.003613922,-0.114453755,9.436804771,1.22898376,-1.427660704,0.501642048,-0.084960938,-0.4140625,-1.03125, 
224,1369912074,0.83549881,-1.527922392,-171.5751038,-0.002783868,-0.117292926,9.415388107,1.179164052,-1.483192205,0.494111359,-0.086914063,-0.413574219,-1.035888672, 
225,1369920407,0.834835231,-1.527426958,-171.5885162,-0.018869009,-0.109607466,9.421512604,1.370169401,-1.493617296,0.458738148,-0.084716797,-0.417480469,-1.035400391, 
226,1369928740,0.843783855,-1.537677765,-171.5865631,-0.024457593,-0.091671325,9.406549454,1.249026895,-1.409282327,0.369562179,-0.087158203,-0.416015625,-1.029785156, 
227,1369937073,0.841885567,-1.536394119,-171.599823,-0.015317457,-0.126434207,9.45730114,1.240881562,-1.414392352,0.512566447,-0.083984375,-0.413085938,-1.032714844, 
228,1369945406,0.85097748,-1.5465312,-171.5973358,-0.021307301,-0.114276163,9.44076252,1.27204144,-1.399869204,0.437683284,-0.086425781,-0.412597656,-1.036376953, 
229,1369953739,0.849103689,-1.544965625,-171.6112213,-0.023649076,-0.123694204,9.393756866,1.258311987,-1.397154093,0.480612665,-0.086425781,-0.4140625,-1.031738281, 
230,1369962072,0.858607948,-1.555080056,-171.6090088,-0.046816964,-0.106708474,9.440207481,1.323717952,-1.402635574,0.403757185,-0.087158203,-0.420410156,-1.030761719, 
231,1369970405,0.856093585,-1.554208398,-171.622818,-0.028390633,-0.10895548,9.439611435,1.197363019,-1.49940598,0.433469683,-0.086181641,-0.416992188,-1.032226563, 
232,1369978738,0.865695655,-1.565312624,-171.6205597,-0.036687743,-0.102682456,9.416079521,1.341020346,-1.525558233,0.415808648,-0.085449219,-0.416015625,-1.035400391, 
233,1369987071,0.863646448,-1.564082384,-171.633667,-0.013484616,-0.12017782,9.441613197,1.268737078,-1.476430297,0.460761696,-0.087158203,-0.41796875,-1.03125, 
234,1369995404,0.872601449,-1.573968649,-171.6306915,-0.026508551,-0.109438382,9.430970192,1.270478964,-1.382067323,0.501309037,-0.085449219,-0.413085938,-1.028808594, 
235,1370003737,0.870568871,-1.572768927,-171.6445313,-0.010739692,-0.110515788,9.415754318,1.286231518,-1.498227596,0.446084708,-0.086914063,-0.414550781,-1.029785156, 
236,1370012070,0.878567159,-1.584022641,-171.6419373,-0.009543411,-0.109817095,9.434221268,1.15986383,-1.552658081,0.460262179,-0.086914063,-0.414550781,-1.031738281, 
237,1370020403,0.876467645,-1.582486391,-171.6544189,-0.019347288,-0.09786132,9.414187431,1.295939565,-1.474176168,0.49941358,-0.087890625,-0.413085938,-1.029785156, 
238,1370028736,0.885487676,-1.592721462,-171.6518555,-0.015424627,-0.101573236,9.45473671,1.285411835,-1.435677767,0.457815945,-0.086669922,-0.416992188,-1.030273438, 
239,1370037069,-0.671455681,0.113397099,-172.0360413,-0.008675686,-0.115060292,9.444179535,1.223656058,-1.480118632,0.429204971,-0.086425781,-0.411621094,-1.033203125, 
240,1370045402,-0.662297666,0.103931636,-172.033432,-0.012453115,-0.106160961,9.436841965,1.29696393,-1.35596621,0.432765305,-0.087402344,-0.412597656,-1.032226563, 
241,1370053735,-0.662340522,0.10343045,-172.0225983,-0.01419347,-0.095370598,9.434802055,1.259426117,-1.453197837,0.472019106,-0.088134766,-0.416992188,-1.031738281, 
242,1370062068,-0.662296355,0.103151642,-172.0228424,-0.037921008,-0.087840728,9.432192802,1.280084133,-1.445846677,0.443420827,-0.088134766,-0.416015625,-1.028808594, 
243,1370070401,-0.661961198,0.103173502,-172.0101929,-0.014015952,-0.1079119,9.402722359,1.303597927,-1.390340567,0.512143731,-0.087158203,-0.416992188,-1.034912109, 
244,1370078734,-0.662407696,0.103030153,-172.0100861,-0.020292489,-0.114244662,9.423718452,1.220556617,-1.429632902,0.483916938,-0.087646484,-0.416015625,-1.032714844, 
245,1370087067,-0.662346661,0.10262423,-171.9991302,-0.035093285,-0.112476096,9.419098854,1.270837426,-1.441671491,0.336968064,-0.086914063,-0.415039063,-1.033203125, 
246,1370095400,-0.662724614,0.102305956,-171.9993286,-0.021453787,-0.103163883,9.429187775,1.229342341,-1.450252414,0.448108226,-0.089599609,-0.416503906,-1.033203125, 
247,1370103733,-0.662250936,0.102063686,-171.987915,-0.021848638,-0.107225955,9.422257423,1.321553588,-1.424663663,0.453384757,-0.087646484,-0.415527344,-1.032226563, 
248,1370112066,-0.661875844,0.102545805,-171.9880524,-0.014133761,-0.119467139,9.396931648,1.318915248,-1.354070783,0.455075294,-0.084960938,-0.414550781,-1.033691406, 
249,1370120399,-0.661682546,0.102746077,-171.9763794,-0.020700727,-0.117057532,9.446929932,1.287640333,-1.37361455,0.520314693,-0.0859375,-0.413085938,-1.033691406, 
250,1370128732,-0.662359536,0.102300741,-171.9762421,-0.016998911,-0.110099562,9.442942619,1.192483544,-1.465467215,0.487221152,-0.0859375,-0.413085938,-1.03125, 
251,1370137065,-0.661696434,0.101925328,-171.9641266,-0.021306008,-0.101693951,9.428285599,1.344529629,-1.443080306,0.586066484,-0.0859375,-0.415039063,-1.031738281, 
252,1370145398,-0.661838651,0.101820312,-171.9637604,-0.036038149,-0.108835153,9.42595768,1.257543802,-1.425995827,0.514116108,-0.0859375,-0.413085938,-1.034179688, 
253,1370153731,-0.661043584,0.100876071,-171.9536743,-0.039626617,-0.107034363,9.426272392,1.360743403,-1.509754062,0.411710352,-0.091064453,-0.416015625,-1.030761719, 
254,1370162064,-0.660498321,0.100851484,-171.9535065,-0.026604261,-0.123340696,9.4320755,1.339048147,-1.415775537,0.490448564,-0.0859375,-0.4140625,-1.030761719, 
255,1370170397,-0.660725713,0.099785969,-171.9401245,-0.02849842,-0.101963587,9.420368195,1.239703417,-1.526416302,0.492433637,-0.086425781,-0.414550781,-1.033203125, 
256,1370178730,-0.660512745,0.098995574,-171.9399109,-0.020816253,-0.101985916,9.423844337,1.299038768,-1.50716722,0.49692893,-0.086181641,-0.417480469,-1.03125, 
257,1370187063,-0.660475433,0.098186724,-171.9291687,-0.043767627,-0.117089264,9.407670021,1.270069122,-1.498330235,0.513911188,-0.084472656,-0.412109375,-1.029785156, 
258,1370195396,-0.660043597,0.09783721,-171.9290314,-0.00856356,-0.092230797,9.402961731,1.327188611,-1.455170155,0.488373786,-0.086914063,-0.414550781,-1.035888672, 
259,1370203729,-0.659559727,0.096866027,-171.9203644,-0.029471615,-0.109065585,9.427157402,1.324038148,-1.516721249,0.452232122,-0.086669922,-0.415527344,-1.030761719, 
260,1370212062,-0.659499228,0.096121013,-171.9205017,-0.004854432,-0.114359483,9.439143181,1.281493068,-1.501583338,0.451386869,-0.084960938,-0.415039063,-1.033203125, 
261,1370220395,-0.658703804,0.09551318,-171.9103088,-0.017832035,-0.119790412,9.436663628,1.362075329,-1.474637151,0.510888696,-0.086914063,-0.415039063,-1.032714844, 
262,1370228728,-0.658618391,0.095723823,-171.9110107,-0.00705549,-0.123840936,9.429168701,1.284028649,-1.386754513,0.38614738,-0.084960938,-0.415039063,-1.033691406, 
263,1370237061,-0.657931685,0.094827235,-171.9011078,-0.001729339,-0.113374189,9.423055649,1.349319458,-1.508114815,0.413580239,-0.086914063,-0.413574219,-1.03515625, 
264,1370245394,-0.657364726,0.094856218,-171.9006958,0.00987736,-0.12748757,9.436190605,1.341635108,-1.410242796,0.519648671,-0.087402344,-0.413085938,-1.030273438, 
265,1370253727,-0.656824946,0.094765626,-171.8900909,-0.014519754,-0.104186967,9.416419029,1.332695842,-1.412471533,0.493727207,-0.087890625,-0.415039063,-1.035400391, 
266,1370262060,-0.656930685,0.095052682,-171.8900604,-0.021112412,-0.10525769,9.428087234,1.262026191,-1.377815485,0.47677058,-0.0859375,-0.416503906,-1.035888672, 
267,1370270393,-0.655993879,0.095317237,-171.8790741,-0.039259788,-0.097538881,9.430763245,1.379633904,-1.369746804,0.514333785,-0.083496094,-0.416015625,-1.033691406, 
268,1370278726,-0.65659529,0.095637985,-171.8790436,-0.045101952,-0.099626623,9.422261238,1.202972531,-1.374011517,0.475092798,-0.087402344,-0.414550781,-1.033691406, 
269,1370287059,-0.656455815,0.095884815,-171.8717346,-0.036497619,-0.109368145,9.416953087,1.283798218,-1.372743726,0.490832776,-0.087402344,-0.415039063,-1.033203125, 
270,1370295392,-0.656237662,0.096446261,-171.8706055,-0.020203834,-0.104445241,9.412336349,1.300549865,-1.346950173,0.609452367,-0.088623047,-0.416015625,-1.030273438, 
271,1370303725,-0.655595422,0.096769065,-171.8604736,-0.031260356,-0.102458052,9.411242485,1.345963955,-1.365366936,0.482328802,-0.086425781,-0.413085938,-1.03125, 
272,1370312058,-0.655462325,0.096670695,-171.8604126,-0.034215659,-0.094611637,9.420433998,1.289510131,-1.42404902,0.477205992,-0.088134766,-0.415527344,-1.030761719, 
273,1370320391,-0.654618204,0.096980557,-171.8516388,-0.016178995,-0.105966628,9.418353081,1.37016964,-1.365700006,0.350415587,-0.084228516,-0.416503906,-1.03125, 
274,1370328724,-0.653497756,0.096854955,-171.8514099,-0.027520159,-0.093416862,9.409410477,1.408283472,-1.427865505,0.500207603,-0.084472656,-0.413085938,-1.03125, 
275,1370337057,-0.652913809,0.097545885,-171.8446655,-0.021414381,-0.101882555,9.420755386,1.338382244,-1.322488546,0.488015205,-0.087402344,-0.415039063,-1.03125, 
276,1370345390,-0.652870536,0.098610327,-171.8448029,-0.037746903,-0.11936675,9.430167198,1.278778076,-1.285066128,0.455946237,-0.086669922,-0.416503906,-1.032226563, 
277,1370353723,-0.653218389,0.098554954,-171.8341217,-0.033811416,-0.104908139,9.431250572,1.226704359,-1.412650704,0.513245285,-0.0859375,-0.414550781,-1.030273438, 
278,1370362056,-0.653306663,0.098336659,-171.8341675,-0.027088948,-0.109479323,9.453352928,1.262897134,-1.438777208,0.468599647,-0.086425781,-0.415039063,-1.033203125, 
279,1370370389,-0.652720928,0.099028379,-171.8252563,-0.025870133,-0.104621939,9.440412521,1.339022517,-1.323513031,0.451873541,-0.088867188,-0.413085938,-1.033203125, 
280,1370378722,-0.652635515,0.099239811,-171.8260193,-0.022379858,-0.097664349,9.434560776,1.283824086,-1.385576606,0.379641414,-0.084472656,-0.416015625,-1.032714844, 
281,1370387055,-0.652741313,0.09922006,-171.8154907,-0.034261357,-0.096554719,9.418897629,1.255725026,-1.410242915,0.492702633,-0.085449219,-0.411132813,-1.031738281, 
282,1370395388,-0.653031349,0.099085636,-171.8156891,-0.002883373,-0.104147084,9.3919487,1.239434242,-1.427737355,0.446059078,-0.084472656,-0.415039063,-1.032714844, 
283,1370403721,-0.653925836,0.098925151,-171.8081818,-0.005592261,-0.121343099,9.380384445,1.16118288,-1.427967787,0.407330364,-0.088134766,-0.416015625,-1.031738281, 
284,1370412054,-0.653351307,0.098721288,-171.8083801,-0.0051142,-0.106767371,9.416540146,1.34271121,-1.435344934,0.444829643,-0.088623047,-0.416503906,-1.034912109, 
285,1370420387,-0.653553426,0.099454179,-171.7999268,-0.015310853,-0.0862244,9.451203346,1.244224191,-1.320746779,0.459480911,-0.087402344,-0.415527344,-1.033203125, 
286,1370428720,-0.653273225,0.099720426,-171.8001251,-0.013850431,-0.10626784,9.423014641,1.307260871,-1.379147172,0.447672755,-0.085449219,-0.412597656,-1.035644531, 
287,1370437053,-0.652635157,0.099124067,-171.7903748,-0.005368843,-0.110710301,9.413771629,1.345003486,-1.480541229,0.536259592,-0.084960938,-0.4140625,-1.030273438, 
288,1370445386,-0.653140068,0.099338785,-171.7908478,-0.032735988,-0.108563468,9.441287041,1.214357972,-1.385653138,0.416167259,-0.083496094,-0.416015625,-1.032226563, 
289,1370453719,-0.653474629,0.099475592,-171.7832336,-0.020231657,-0.116277337,9.408102989,1.228586674,-1.391480446,0.509441495,-0.087158203,-0.415039063,-1.029785156, 
290,1370462052,-0.653633296,0.099019147,-171.7827606,-0.043504935,-0.101111606,9.412603378,1.254623652,-1.468412995,0.52715379,-0.086914063,-0.415527344,-1.032714844, 
291,1370470385,-0.653179109,0.098923922,-171.7751312,-0.024216412,-0.118685216,9.432824135,1.323679566,-1.418260217,0.405562967,-0.086425781,-0.413574219,-1.032226563, 
292,1370478718,-0.652812898,0.098332934,-171.775116,-0.025569892,-0.102139905,9.434088707,1.316802144,-1.483691692,0.471583635,-0.0859375,-0.413085938,-1.032714844, 
293,1370487051,-0.65285188,0.098248102,-171.7663574,-0.02630182,-0.099328287,9.417694092,1.266047597,-1.419822574,0.507430792,-0.087646484,-0.41796875,-1.033203125, 
294,1370495384,-0.652714312,0.098083846,-171.7666168,-0.018682888,-0.104708157,9.423273087,1.290176153,-1.431733251,0.441422909,-0.086914063,-0.415039063,-1.034912109, 
295,1370503717,-0.652173281,0.097927034,-171.7588196,-0.026719261,-0.083814211,9.43389225,1.333131313,-1.428659558,0.449849963,-0.088623047,-0.415527344,-1.033203125, 
296,1370512050,-0.652492046,0.097627185,-171.7587738,-0.019350357,-0.116289683,9.41341114,1.236975312,-1.448254466,0.477948785,-0.085693359,-0.41796875,-1.032714844, 
297,1370520383,-0.652641237,0.097590081,-171.7486725,-0.006288243,-0.105837844,9.441675186,1.250525355,-1.41390574,0.479895502,-0.083984375,-0.415527344,-1.030273438, 
298,1370528716,-0.6525985,0.097997256,-171.7492676,-0.021722779,-0.11708165,9.432467461,1.27812469,-1.36233139,0.398864865,-0.084472656,-0.412597656,-1.030273438, 
299,1370537049,-0.652384579,0.097759105,-171.7442322,-0.015890937,-0.093472153,9.399787903,1.294978857,-1.438354492,0.385673523,-0.087402344,-0.4140625,-1.030761719, 
300,1370545382,-0.651928544,0.098382033,-171.7443848,-0.024816725,-0.112961963,9.440270424,1.329327464,-1.336678863,0.453961045,-0.085449219,-0.412597656,-1.033691406, 
301,1370553715,-0.651408076,0.098335832,-171.7359009,-0.028816454,-0.116785966,9.437302589,1.33091557,-1.416403174,0.479139864,-0.086914063,-0.413574219,-1.030273438, 
302,1370562048,-0.651958525,0.097401477,-171.7358398,-0.010238317,-0.104583368,9.433849335,1.208338737,-1.525097013,0.477846324,-0.086425781,-0.413085938,-1.030273438, 
303,1370570381,-0.652103662,0.096741006,-171.7275696,-0.019546034,-0.117210299,9.404161453,1.252804995,-1.489672542,0.470520705,-0.088623047,-0.416992188,-1.031738281, 
304,1370578714,-0.653012514,0.096756548,-171.7273865,-0.026908496,-0.115819342,9.458116531,1.164102912,-1.410985708,0.494034529,-0.083496094,-0.413085938,-1.033203125, 
305,1370587047,-0.652934313,0.096557811,-171.7185059,-0.028629076,-0.119141698,9.403505325,1.279277325,-1.434704661,0.51077348,-0.085693359,-0.416503906,-1.030273438, 
306,1370595380,-0.653104067,0.096598469,-171.7184906,-0.018732894,-0.127784416,9.416481018,1.253816724,-1.40756619,0.474708617,-0.086914063,-0.411621094,-1.030761719, 
307,1370603713,-0.653352141,0.096057177,-171.711853,-0.035160646,-0.106023669,9.409197807,1.240945578,-1.477121592,0.506662369,-0.083984375,-0.412109375,-1.032714844, 
308,1370612046,-0.653542101,0.095563546,-171.7110596,-0.004976565,-0.111443289,9.422497749,1.251088858,-1.472229362,0.565242112,-0.088134766,-0.415039063,-1.030761719, 
309,1370620379,-0.653856099,0.094848163,-171.7052002,-0.028400056,-0.116237044,9.428231239,1.232851386,-1.497920394,0.464859903,-0.087158203,-0.416015625,-1.029296875, 
310,1370628712,-0.65481627,0.094751149,-171.7057648,-0.026901033,-0.090043277,9.437929153,1.159594893,-1.423357368,0.405998439,-0.0859375,-0.415039063,-1.031738281, 
311,1370637045,-0.654322088,0.095784396,-171.698761,-0.025470857,-0.097433247,9.407245636,1.330390692,-1.287038445,0.416192949,-0.088867188,-0.4140625,-1.032714844, 
312,1370645378,-0.653748691,0.095357344,-171.6990967,-0.012327054,-0.092067845,9.411824226,1.34209621,-1.462367773,0.430793017,-0.090332031,-0.413574219,-1.034179688, 
313,1370653711,-0.653572559,0.095146686,-171.6903687,-0.030157289,-0.116326004,9.398125648,1.292712092,-1.437778354,0.467779964,-0.084960938,-0.412597656,-1.036376953, 
314,1370662044,-0.654083014,0.0947657,-171.6908112,-0.021452606,-0.115471788,9.416142464,1.212206364,-1.457987785,0.420111865,-0.084716797,-0.416992188,-1.03125, 
315,1370670377,-0.654131234,0.095281564,-171.6842041,-0.032180082,-0.098912515,9.414297104,1.26443398,-1.350408077,0.526846409,-0.087402344,-0.412109375,-1.034179688, 
316,1370678710,-0.653964937,0.095688626,-171.68367,-0.015603202,-0.108195283,9.419504166,1.294210434,-1.36357379,0.537745178,-0.0859375,-0.415527344,-1.032226563, 
317,1370687043,-0.653772295,0.095602334,-171.6757507,-0.035598811,-0.116663449,9.425258636,1.293326735,-1.424125791,0.431254029,-0.086669922,-0.414550781,-1.028320313, 
318,1370695376,-0.653868496,0.095303819,-171.6761169,-0.033403814,-0.103957213,9.42463398,1.263486147,-1.446871161,0.429640353,-0.086914063,-0.415527344,-1.034912109, 
319,1370703709,-0.653821826,0.096000195,-171.6686401,-0.028925788,-0.10857702,9.410164833,1.27683115,-1.330326438,0.545519114,-0.088378906,-0.415527344,-1.035400391, 
320,1370712042,-0.653847158,0.09606953,-171.6690063,-0.026630796,-0.108411498,9.445177078,1.270453334,-1.404326081,0.428154796,-0.086914063,-0.413085938,-1.03515625, 
321,1370720375,-0.653824925,0.096281901,-171.6608887,-0.015864873,-0.11431247,9.44321537,1.273911119,-1.388137817,0.47679615,-0.085205078,-0.416015625,-1.03125, 
322,1370728708,-0.654045165,0.096824102,-171.6607513,0.006161813,-0.112861834,9.414322853,1.246939301,-1.346437931,0.489552051,-0.082519531,-0.416992188,-1.035888672, 
323,1370737041,-0.653847337,0.097231455,-171.6549225,-0.01794832,-0.114419043,9.412624359,1.295029998,-1.366045475,0.511541843,-0.083984375,-0.415039063,-1.028320313, 
324,1370745374,-0.653678238,0.096757203,-171.6550446,-0.012100491,-0.10893891,9.415825844,1.295298934,-1.469488502,0.455587536,-0.084960938,-0.413085938,-1.032714844, 
325,1370753707,-0.653138816,0.096633099,-171.6513672,-0.009940222,-0.105156712,9.417556763,1.336794019,-1.426994562,0.357741177,-0.086914063,-0.415527344,-1.033203125, 
326,1370762040,-0.653358221,0.096153237,-171.6507416,-0.015585102,-0.112628348,9.444401741,1.247528553,-1.471051097,0.547517061,-0.08984375,-0.41015625,-1.032226563, 
327,1370770373,-0.653527081,0.095350333,-171.643692,-0.027547373,-0.127839476,9.433541298,1.250243545,-1.510496974,0.49449563,-0.087402344,-0.413574219,-1.028808594, 
328,1370778706,-0.653381169,0.095913462,-171.6445618,-0.023752708,-0.106309123,9.424906731,1.292199612,-1.342493176,0.369728655,-0.086914063,-0.416015625,-1.036865234, 
329,1370787039,-0.652660131,0.095185623,-171.6379089,-0.012355678,-0.117039941,9.436047554,1.358937502,-1.501314282,0.406830907,-0.084960938,-0.415039063,-1.032714844, 
330,1370795372,-0.652725995,0.096286029,-171.6382446,0.002006175,-0.101563521,9.449112892,1.265547991,-1.279520631,0.43272689,-0.086914063,-0.413574219,-1.029296875, 
331,1370803705,-0.652063072,0.095906213,-171.6334229,-0.029603109,-0.104780547,9.420484543,1.35218811,-1.459370971,0.433687389,-0.086914063,-0.412597656,-1.032714844, 
332,1370812038,-0.652381837,0.095748827,-171.6341248,-0.020624647,-0.112440787,9.416944504,1.236027718,-1.429965854,0.387504965,-0.087890625,-0.413574219,-1.034179688, 
333,1370820371,-0.651897252,0.096034966,-171.6272125,-0.018233906,-0.104695074,9.396321297,1.331210136,-1.379582644,0.512297511,-0.087890625,-0.415039063,-1.031738281, 
334,1370828704,-0.651427627,0.096152954,-171.6265717,-0.025343178,-0.122416861,9.433125496,1.328981876,-1.399741054,0.549105167,-0.084960938,-0.414550781,-1.03125, 
335,1370837037,-0.651605844,0.095802151,-171.619812,-0.028192379,-0.123395994,9.417103767,1.252126336,-1.455144763,0.481342763,-0.086181641,-0.416503906,-1.030273438, 
336,1370845370,-0.652022123,0.09645687,-171.6201782,-0.033203971,-0.106922708,9.442474365,1.223732829,-1.33350265,0.426003158,-0.086181641,-0.416015625,-1.029785156, 
337,1370853703,-0.65215379,0.096569054,-171.6158142,-0.02883096,-0.099029675,9.397781372,1.257223368,-1.399600148,0.372738332,-0.087158203,-0.416503906,-1.028808594, 
338,1370862036,-0.652103245,0.096994214,-171.6160278,-0.014270579,-0.113823898,9.401622772,1.279943347,-1.361434937,0.446251184,-0.088378906,-0.413085938,-1.030761719, 
339,1370870369,-0.651696205,0.097421534,-171.6098328,-0.026115393,-0.114445359,9.417488098,1.32211709,-1.364137292,0.47930634,-0.085205078,-0.416992188,-1.034179688, 
340,1370878702,-0.651691616,0.096502319,-171.6098633,-0.026441781,-0.123980224,9.442287445,1.273834467,-1.521562457,0.466345578,-0.084472656,-0.415527344,-1.03125, 
341,1370887035,-0.651535928,0.096148968,-171.6051941,-0.026169164,-0.102371901,9.435676575,1.291341662,-1.457513928,0.475144029,-0.086669922,-0.417480469,-1.03125, 
342,1370895368,-0.651689887,0.095860615,-171.60495,-0.010716132,-0.118283845,9.450575829,1.256250143,-1.448087931,0.50070703,-0.08984375,-0.414550781,-1.033203125, 
343,1370903701,-0.651643932,0.096553795,-171.599762,-0.010045482,-0.112203419,9.43019104,1.278880239,-1.331555963,0.405921549,-0.083984375,-0.415527344,-1.032714844, 
344,1370912034,-0.652257621,0.096883707,-171.600296,-0.024993852,-0.09969689,9.421542168,1.199655533,-1.371642232,0.406741232,-0.087158203,-0.416503906,-1.031738281, 
345,1370920367,-0.651741326,0.096943654,-171.5960999,-0.008727465,-0.105811283,9.448598862,1.3371526,-1.408014536,0.499848992,-0.085449219,-0.413574219,-1.033691406, 
346,1370928700,-0.651618063,0.097073421,-171.5952454,-0.007464199,-0.093715705,9.409371376,1.287409902,-1.398537159,0.573566794,-0.088623047,-0.416503906,-1.031738281, 
347,1370937033,-0.651581585,0.096998185,-171.5899811,-0.016062681,-0.127133518,9.428982735,1.278368115,-1.423152566,0.467959315,-0.086425781,-0.413085938,-1.030761719, 
348,1370945366,-0.652047992,0.097374894,-171.5901642,-0.022480857,-0.104751281,9.431980133,1.217687845,-1.367210984,0.450311005,-0.087158203,-0.418457031,-1.03125, 
349,1370953699,-0.651923299,0.09764149,-171.5847626,-0.018908948,-0.094226278,9.427620888,1.288767576,-1.382067323,0.423595458,-0.086425781,-0.413085938,-1.03125, 
350,1370962032,-0.651860833,0.097928569,-171.584259,-0.009979474,-0.103651531,9.427843094,1.281326413,-1.378468513,0.532084525,-0.088378906,-0.413574219,-1.033203125, 
351,1370970365,-0.652290463,0.097886369,-171.5783691,-0.01965417,-0.107587285,9.421736717,1.222055078,-1.419950724,0.496198952,-0.084960938,-0.411621094,-1.031738281, 
352,1370978698,-0.652567089,0.098656848,-171.5782318,-0.024830634,-0.096474782,9.421670914,1.241073608,-1.320311189,0.488988519,-0.089111328,-0.416503906,-1.03125, 
353,1370987031,-0.651174247,0.098782726,-171.5730591,-0.036425095,-0.114590213,9.423970222,1.441428185,-1.400381446,0.474439681,-0.085449219,-0.4140625,-1.031738281, 
354,1370995364,-0.650689125,0.098425172,-171.5726929,-0.020198373,-0.111598954,9.417350769,1.330723643,-1.455119133,0.516395807,-0.086425781,-0.415527344,-1.033691406, 
355,1371003697,-0.650515556,0.09854912,-171.5672455,-0.038723961,-0.088112265,9.404611588,1.295478344,-1.401943922,0.522517622,-0.086425781,-0.415039063,-1.036865234, 
356,1371012030,-0.650874913,0.098416694,-171.567276,-0.032778386,-0.114843898,9.419091225,1.230827808,-1.427609205,0.468317837,-0.087646484,-0.416503906,-1.028808594, 
357,1371020363,-0.650138259,0.098581865,-171.5612488,-0.024703955,-0.117815636,9.406080246,1.361588597,-1.395950079,0.531328797,-0.087890625,-0.4140625,-1.03125, 
358,1371028696,-0.65017724,0.099061705,-171.5609741,-0.027331291,-0.098764047,9.386915207,1.26924932,-1.35619688,0.507225871,-0.087402344,-0.413574219,-1.031738281, 
359,1371037029,-0.649937987,0.098918654,-171.5546722,-0.023978459,-0.126171246,9.418197632,1.302419782,-1.432168722,0.408380538,-0.084960938,-0.415039063,-1.032714844, 
360,1371045362,-0.650204122,0.099191152,-171.5549469,-0.013367425,-0.11445573,9.431649208,1.24181664,-1.379531622,0.438400477,-0.082519531,-0.4140625,-1.030761719, 
361,1371053695,-0.650164902,0.098794363,-171.5514832,-0.017346906,-0.102377914,9.447978973,1.27923882,-1.462777615,0.369216353,-0.086914063,-0.4140625,-1.030761719, 
362,1371062028,-0.649899781,0.098173574,-171.5521088,-0.024831126,-0.111280411,9.423667908,1.306210876,-1.485241532,0.395266086,-0.085693359,-0.415527344,-1.030273438, 
363,1371070361,-0.650085211,0.097869672,-171.5455475,-0.014241761,-0.104889087,9.41352272,1.250474095,-1.45414567,0.517804563,-0.085449219,-0.413574219,-1.033203125, 
364,1371078694,-0.650043845,0.098751731,-171.5454254,-0.002470654,-0.106131338,9.398285866,1.279136539,-1.306095481,0.488681197,-0.087402344,-0.415039063,-1.031738281, 
365,1371087027,-0.64959383,0.098741151,-171.5405426,-0.018874966,-0.109374776,9.4276371,1.327777863,-1.417466164,0.466012597,-0.083984375,-0.412597656,-1.032226563, 
366,1371095360,-0.649471641,0.098240614,-171.540451,-0.013500517,-0.107793577,9.399802208,1.288370252,-1.472267628,0.482520968,-0.083007813,-0.412597656,-1.03125, 
367,1371103693,-0.648807287,0.097291291,-171.5362701,-0.015740748,-0.129717454,9.401759148,1.354019761,-1.529874206,0.501731694,-0.086669922,-0.415527344,-1.03125, 
368,1371112026,-0.650046051,0.096640155,-171.5361481,-0.014145333,-0.107275933,9.43356514,1.12575841,-1.491440058,0.486145347,-0.087402344,-0.413085938,-1.032714844, 
369,1371120359,-0.650458097,0.096704833,-171.5305786,-0.006549819,-0.103854701,9.434864998,1.223835349,-1.408962131,0.533711016,-0.086669922,-0.41796875,-1.032714844, 
370,1371128692,-0.650229156,0.096062049,-171.5308075,-0.01245131,-0.116731502,9.434638023,1.301433802,-1.488635421,0.443228692,-0.085693359,-0.416992188,-1.029296875, 
371,1371137025,-0.65029043,0.095590338,-171.5270233,-0.016490553,-0.106527932,9.447463989,1.267366767,-1.471281528,0.361826658,-0.087402344,-0.4140625,-1.033203125, 
372,1371145358,-0.648866653,0.095481656,-171.5270691,-0.027167156,-0.111167625,9.430491447,1.445859551,-1.425739408,0.463348687,-0.087646484,-0.416015625,-1.033691406, 
373,1371153691,-0.649283409,0.095374845,-171.5218964,-0.023494985,-0.104155615,9.42453289,1.223207831,-1.427148461,0.435928643,-0.083496094,-0.414550781,-1.034179688, 
374,1371162024,-0.649484932,0.095162563,-171.5223999,-0.023552626,-0.122124515,9.405830383,1.249974608,-1.438226461,0.410647392,-0.086914063,-0.415039063,-1.034179688, 
375,1371170357,-0.649915278,0.09495306,-171.5197754,-0.014166697,-0.115165427,9.40489769,1.223835349,-1.441184878,0.457713544,-0.0859375,-0.412109375,-1.030761719, 
376,1371178690,-0.649771988,0.095547162,-171.5192719,-0.029866327,-0.108856156,9.437288284,1.290483594,-1.34087944,0.533685386,-0.087402344,-0.4140625,-1.036376953, 
377,1371187023,-0.648947716,0.095646158,-171.5147858,-0.035210073,-0.086932734,9.408859253,1.374434233,-1.403032541,0.432470709,-0.086425781,-0.414550781,-1.032226563, 
378,1371195356,-0.648887813,0.095027626,-171.5146027,-0.005978074,-0.109298177,9.413921356,1.280391693,-1.488340735,0.491703629,-0.086914063,-0.414550781,-1.03125, 
379,1371203689,-0.649425149,0.095819049,-171.5100098,-0.022257973,-0.101636298,9.411336899,1.210208535,-1.319978476,0.445777327,-0.087402344,-0.413574219,-1.030273438, 
380,1371212022,-0.650467873,0.095491372,-171.5096436,-0.035452396,-0.130614921,9.442326546,1.148836732,-1.452967405,0.515319943,-0.084472656,-0.415039063,-1.031738281, 
381,1371220355,-0.650727689,0.095914423,-171.504425,-0.016888442,-0.12548539,9.41867733,1.24293077,-1.364226818,0.414873749,-0.087646484,-0.416992188,-1.034423828, 
382,1371228688,-0.650873303,0.097121164,-171.5044556,-0.006192389,-0.106452726,9.431505203,1.256250262,-1.267225862,0.469995618,-0.090820313,-0.4140625,-1.033691406, 
383,1371237021,-0.651416302,0.098100677,-171.5000305,-0.020414812,-0.121649928,9.421116829,1.211015344,-1.298142195,0.415437281,-0.084472656,-0.413085938,-1.031738281, 
384,1371245354,-0.651596189,0.099141732,-171.4991913,-0.001754743,-0.102136269,9.420345306,1.251831651,-1.289753437,0.572772682,-0.085449219,-0.414550781,-1.034179688, 
385,1371253687,-0.651686788,0.099066153,-171.4950867,-0.022771722,-0.113184385,9.415742874,1.264920473,-1.425918698,0.53445375,-0.081542969,-0.413574219,-1.03125, 
386,1371262020,-0.65135175,0.098833658,-171.4942322,-0.008192374,-0.117407285,9.439101219,1.313920617,-1.441594839,0.574104607,-0.084960938,-0.414550781,-1.031738281, 
387,1371270353,-0.651306689,0.099083863,-171.4921112,-0.024884513,-0.115395091,9.435113907,1.279354095,-1.38611412,0.552166045,-0.086425781,-0.413574219,-1.031738281, 
388,1371278686,-0.650899172,0.09824606,-171.4922791,-0.013414808,-0.104522526,9.413435936,1.324435115,-1.513583541,0.449888408,-0.083496094,-0.415527344,-1.034667969, 
389,1371287019,-0.650469542,0.097964033,-171.4875336,0.010569024,-0.105198875,9.435785294,1.326574087,-1.449919462,0.440936238,-0.084960938,-0.412597656,-1.030761719, 
390,1371295352,-0.649735808,0.098355412,-171.4880676,0.00289477,-0.10895206,9.455429077,1.36245954,-1.364649653,0.406843692,-0.088134766,-0.417480469,-1.029785156, 
391,1371303685,-0.649697244,0.098552629,-171.4844055,-0.009489498,-0.104544528,9.436168671,1.280212283,-1.39141643,0.452206492,-0.088134766,-0.416503906,-1.033203125, 
392,1371312018,-0.64977175,0.098120995,-171.4842834,-0.035011176,-0.116384126,9.443124771,1.264229059,-1.465467215,0.486760169,-0.087402344,-0.413574219,-1.029296875, 
393,1371320351,-0.649646223,0.09704347,-171.4789429,-0.003920434,-0.106717013,9.436480522,1.290355563,-1.543692946,0.468855739,-0.085449219,-0.414550781,-1.032226563, 
394,1371328684,-0.649524271,0.096332654,-171.4790192,-0.026459631,-0.106811516,9.427629471,1.288997889,-1.497971535,0.460659176,-0.087646484,-0.415527344,-1.028808594, 
395,1371337017,-0.649660468,0.097058982,-171.4751129,-0.023424782,-0.120119013,9.445279121,1.259093404,-1.327893257,0.475323379,-0.087402344,-0.412597656,-1.032226563, 
396,1371345350,-0.650333941,0.097590193,-171.4758759,-0.030530235,-0.101958908,9.441171646,1.192598701,-1.348550916,0.381933838,-0.086914063,-0.413574219,-1.037353516, 
397,1371353683,-0.650554776,0.098281518,-171.4697266,-0.024898646,-0.121540785,9.429521561,1.249462247,-1.332849264,0.561284721,-0.088867188,-0.413574219,-1.031738281, 
398,1371362016,-0.650636435,0.098099485,-171.4695129,-0.019092822,-0.094705097,9.423672676,1.263550162,-1.4355371,0.498837203,-0.085693359,-0.416503906,-1.033203125, 
399,1371370349,-0.651282489,0.098050535,-171.4642487,-0.031026073,-0.116843365,9.419248581,1.199527383,-1.42148757,0.454998434,-0.08203125,-0.416992188,-1.033203125, 
400,1371378682,-0.65091753,0.097458251,-171.4643402,-0.026849253,-0.118403956,9.426693916,1.31719923,-1.483627796,0.462324083,-0.088378906,-0.412597656,-1.03125, 
401,1371387015,-0.651175916,0.096806295,-171.4633942,-0.036043562,-0.116691068,9.446101189,1.244557261,-1.494385839,0.455843776,-0.08203125,-0.414550781,-1.032226563, 
402,1371395348,-0.650749922,0.096048072,-171.4635925,-0.010945019,-0.116106421,9.414768219,1.324486256,-1.502492428,0.444637448,-0.087646484,-0.416015625,-1.032226563, 
403,1371403681,-0.650621772,0.096315257,-171.4625244,-0.023569474,-0.10670159,9.411808968,1.292110085,-1.383207083,0.416871697,-0.085693359,-0.417480469,-1.031738281, 
404,1371412014,-0.650095463,0.096276879,-171.4631348,-0.013412553,-0.12572062,9.431107521,1.336935043,-1.417363882,0.399863839,-0.085449219,-0.412597656,-1.032226563, 
405,1371420347,-0.64962548,0.096203469,-171.4592285,-0.016100876,-0.10690894,9.435775757,1.332900763,-1.424894214,0.502128601,-0.088623047,-0.414550781,-1.029296875, 
406,1371428680,-0.648975611,0.095775224,-171.4590912,-0.00692439,-0.119535379,9.417836189,1.351483822,-1.463507652,0.48805362,-0.085449219,-0.415527344,-1.033691406, 
407,1371437013,-0.649319649,0.096317522,-171.4541168,-0.008993004,-0.109010734,9.40836525,1.235272169,-1.351189256,0.419714838,-0.086425781,-0.414550781,-1.032226563, 
408,1371445346,-0.649032712,0.096928857,-171.4545135,-0.008186557,-0.127915442,9.426615715,1.307914019,-1.338881493,0.424376637,-0.086425781,-0.414550781,-1.037353516, 
409,1371453679,-0.649259806,0.09643127,-171.4498596,-0.013324962,-0.095438853,9.419378281,1.249885082,-1.476558328,0.496160597,-0.086914063,-0.415527344,-1.038330078, 
410,1371462012,-0.649810612,0.0957039,-171.4491272,0.002603463,-0.10389147,9.435549736,1.207749605,-1.499943972,0.556328356,-0.087158203,-0.416015625,-1.032226563, 
411,1371470345,-0.649625599,0.095576793,-171.4449463,-0.017545722,-0.099892586,9.433629036,1.297104836,-1.430644631,0.471045762,-0.085449219,-0.415039063,-1.035400391, 
412,1371478678,-0.649344504,0.095006704,-171.4450226,-0.010851179,-0.107756466,9.406319618,1.309156299,-1.482039571,0.462631494,-0.087890625,-0.412597656,-1.032714844, 
413,1371487011,-0.64934212,0.095850796,-171.4421082,-0.018486688,-0.11149247,9.424220085,1.276549459,-1.312755227,0.411505491,-0.0859375,-0.414550781,-1.03125, 
414,1371495344,-0.649220347,0.095708303,-171.4415283,-0.014471104,-0.093627833,9.444907188,1.288613677,-1.431092978,0.540396273,-0.086669922,-0.416503906,-1.033203125, 
415,1371503677,-0.648973823,0.095586009,-171.4374847,-0.012393678,-0.109442256,9.431533813,1.305852056,-1.430478096,0.521595478,-0.086914063,-0.415039063,-1.032226563, 
416,1371512010,-0.648304284,0.095627621,-171.437027,-0.024564305,-0.097674981,9.413580894,1.354058027,-1.407988906,0.526820779,-0.087402344,-0.412109375,-1.032714844, 
417,1371520343,-0.648768961,0.095445439,-171.4327545,-0.03204279,-0.111968808,9.415686607,1.219314456,-1.438470006,0.496070921,-0.084472656,-0.414550781,-1.03125, 
418,1371528676,-0.648017883,0.095409319,-171.4331665,-0.02502124,-0.089526758,9.446846962,1.364290833,-1.415480852,0.423223972,-0.087402344,-0.413574219,-1.034179688, 
419,1371537009,-0.647768557,0.094916843,-171.4293518,-0.034138557,-0.099756412,9.408209801,1.306466699,-1.477223992,0.58742398,-0.089599609,-0.415527344,-1.029785156, 
420,1371545342,-0.647752404,0.094292492,-171.4302979,-0.038089108,-0.11086154,9.428219795,1.275089383,-1.485702395,0.359226823,-0.0859375,-0.4140625,-1.029296875, 
421,1371553675,-0.648318648,0.095086142,-171.4247589,-0.030344304,-0.094718114,9.424782753,1.208069801,-1.321553588,0.500194788,-0.090332031,-0.412597656,-1.036865234, 
422,1371562008,-0.648379028,0.0955856,-171.4244995,-0.016321048,-0.118904345,9.427575111,1.26681602,-1.35353291,0.502205431,-0.086181641,-0.415527344,-1.030273438, 
423,1371570341,-0.648639143,0.09621793,-171.4187927,-0.01855734,-0.113987066,9.442473412,1.245684266,-1.339803696,0.427027702,-0.087646484,-0.416015625,-1.033691406, 
424,1371578674,-0.648760617,0.095330082,-171.4192657,-0.021369506,-0.11318136,9.4319067,1.258875608,-1.517976403,0.412197053,-0.088134766,-0.415527344,-1.031738281, 
425,1371587007,-0.648927867,0.09567333,-171.4155579,-0.016958391,-0.098451085,9.432549477,1.256211877,-1.374767423,0.37866807,-0.086914063,-0.416015625,-1.035400391, 
426,1371595340,-0.649027884,0.096095257,-171.4156342,-0.012536976,-0.131429121,9.390824318,1.261693239,-1.361678362,0.46168375,-0.086914063,-0.4140625,-1.031738281, 
427,1371603673,-0.649126709,0.096953884,-171.4111633,-0.026006695,-0.108682238,9.418225288,1.264382839,-1.313984752,0.505663455,-0.089355469,-0.413085938,-1.032714844, 
428,1371612006,-0.649224401,0.097324491,-171.41185,0.005658526,-0.098551944,9.440721512,1.261782646,-1.366224885,0.389618129,-0.087890625,-0.412597656,-1.030761719, 
429,1371620339,-0.648942769,0.096495703,-171.4065857,-0.024342597,-0.128609702,9.425828934,1.311320662,-1.516016841,0.482136697,-0.086425781,-0.41015625,-1.030761719, 
430,1371628672,-0.649329722,0.096833527,-171.4066925,0.001332852,-0.120637715,9.439846039,1.226985812,-1.372846127,0.458738148,-0.083984375,-0.414550781,-1.033691406, 
431,1371637005,-0.649594605,0.097041063,-171.4022675,-0.000250787,-0.118540525,9.4217062,1.244352341,-1.391646981,0.486683279,-0.088134766,-0.415039063,-1.03125, 
432,1371645338,-0.649756908,0.097474836,-171.4029694,-0.024172692,-0.103731878,9.415657043,1.255263925,-1.358066678,0.387914747,-0.090576172,-0.415527344,-1.029296875, 
433,1371653671,-0.649736166,0.098124117,-171.3977051,-0.010431084,-0.09270376,9.44335556,1.278316736,-1.339573264,0.529049158,-0.0859375,-0.415039063,-1.029785156, 
434,1371662004,-0.650001228,0.097775236,-171.3979034,-0.025408618,-0.090777852,9.419065475,1.241855025,-1.453940988,0.449914068,-0.086914063,-0.415527344,-1.033203125, 
435,1371670337,-0.650347292,0.09884268,-171.3947754,-0.028784631,-0.103020549,9.446551323,1.234759688,-1.287550688,0.418843925,-0.088134766,-0.417480469,-1.032714844, 
436,1371678670,-0.650084615,0.098987922,-171.3954773,-0.032068353,-0.10245727,9.432359695,1.305685639,-1.393375874,0.388747275,-0.086914063,-0.4140625,-1.030273438, 
437,1371687003,-0.649838328,0.098813519,-171.3909149,-0.008317443,-0.108484618,9.412549973,1.306530952,-1.438328862,0.494047344,-0.087158203,-0.416992188,-1.03125, 
438,1371695336,-0.648721576,0.098901793,-171.3913116,-0.043961845,-0.108247168,9.425387383,1.407310009,-1.401764393,0.422289073,-0.084472656,-0.413574219,-1.033203125, 
439,1371703669,-0.647966087,0.099188752,-171.3878479,-0.019267816,-0.104493685,9.432393074,1.368325233,-1.381503701,0.460992157,-0.088378906,-0.413085938,-1.034667969, 
440,1371712002,-0.648030162,0.099853888,-171.3875275,-0.033606712,-0.092932016,9.410992622,1.266226888,-1.333554029,0.511298597,-0.086914063,-0.411621094,-1.032714844, 
441,1371720335,-0.648270965,0.099794447,-171.3823853,-0.009056775,-0.103883438,9.443148613,1.24665761,-1.421974301,0.471468389,-0.085449219,-0.416015625,-1.033203125, 
442,1371728668,-0.647784352,0.099791147,-171.382309,-0.000481212,-0.111686982,9.419336319,1.332631707,-1.413073182,0.480343729,-0.084472656,-0.415527344,-1.035888672, 
443,1371737001,-0.647802353,0.099627748,-171.3796082,-0.021550234,-0.110408269,9.449231148,1.274154425,-1.435652256,0.429755628,-0.088867188,-0.411621094,-1.034179688, 
444,1371745334,-0.647742212,0.100106917,-171.3796539,-0.017746298,-0.101270832,9.406041145,1.280340314,-1.355351567,0.467216432,-0.087402344,-0.413574219,-1.034179688, 
445,1371753667,-0.646885216,0.101054594,-171.3735962,-0.019574897,-0.095721379,9.40609169,1.379352212,-1.303508401,0.565639138,-0.086914063,-0.415039063,-1.03125, 
446,1371762000,-0.646153748,0.101388246,-171.3739014,-0.000770815,-0.104729794,9.434944153,1.360897064,-1.372615576,0.437990576,-0.086914063,-0.4140625,-1.030761719, 
447,1371770333,-0.645945191,0.101140924,-171.3694916,-0.017490933,-0.104584709,9.453449249,1.301843405,-1.44669199,0.570275307,-0.092041016,-0.416015625,-1.031738281, 
448,1371778666,-0.646148801,0.101091504,-171.3694305,-0.00429187,-0.125984699,9.443265915,1.248783827,-1.418490767,0.479562521,-0.086425781,-0.415039063,-1.033691406, 
449,1371786999,-0.646878242,0.100892566,-171.3636932,-0.021606499,-0.108591489,9.427207947,1.189307332,-1.440416574,0.443830639,-0.088378906,-0.411621094,-1.033203125, 
450,1371795332,-0.646389127,0.101092026,-171.3632965,-0.01401908,-0.11394269,9.432807922,1.331671238,-1.388522029,0.520417213,-0.087402344,-0.416015625,-1.034912109, 
451,1371803665,-0.646430373,0.101313479,-171.3590546,-0.019414347,-0.110264264,9.451850891,1.271669984,-1.389700294,0.431292474,-0.089355469,-0.414550781,-1.033691406, 
452,1371811998,-0.645759881,0.1009368,-171.3593292,-0.021493828,-0.097855732,9.425503731,1.35462153,-1.458115816,0.436889201,-0.090820313,-0.414550781,-1.032714844, 
453,1371820331,-0.645455599,0.100388944,-171.3548279,-0.025330158,-0.115657367,9.409276009,1.313151956,-1.480553985,0.434865654,-0.084960938,-0.415527344,-1.033203125, 
454,1371828664,-0.64604938,0.100492008,-171.3557587,-0.017565256,-0.097943723,9.424045563,1.202473044,-1.398281097,0.359354913,-0.087646484,-0.415527344,-1.029296875, 
455,1371836997,-0.64631331,0.100168154,-171.3538666,-0.02095627,-0.09951365,9.428529739,1.244621038,-1.454850078,0.43536514,-0.086914063,-0.415039063,-1.031738281, 
456,1371845330,-0.645907938,0.099715836,-171.353653,-0.019581888,-0.110745519,9.427829742,1.322757483,-1.468335986,0.494674921,-0.083007813,-0.415039063,-1.031738281, 
457,1371853663,-0.645622492,0.099649943,-171.351059,-0.008044335,-0.101732872,9.428198814,1.309386849,-1.422691345,0.404640853,-0.085693359,-0.416992188,-1.030761719, 
458,1371861996,-0.646235466,0.100535758,-171.3510437,-0.030054636,-0.099328205,9.426801682,1.20124352,-1.306249142,0.475413024,-0.084960938,-0.415527344,-1.032714844, 
459,1371870329,-0.645703197,0.101089031,-171.3481445,-0.037025686,-0.091620252,9.430833817,1.339355469,-1.350638509,0.526641428,-0.084472656,-0.4140625,-1.032226563, 
460,1371878662,-0.644828439,0.101586059,-171.3482819,-0.01631695,-0.107498832,9.423137665,1.378545284,-1.352739096,0.45425567,-0.086425781,-0.414550781,-1.032714844, 
461,1371886995,-0.645009696,0.101792991,-171.3462372,-0.024166068,-0.130870268,9.426267624,1.253957629,-1.39108336,0.47167328,-0.088134766,-0.415527344,-1.032714844, 
462,1371895328,-0.64523226,0.102133259,-171.3458557,-0.020985754,-0.088875033,9.424588203,1.248220086,-1.372615695,0.51716423,-0.086425781,-0.4140625,-1.036865234, 
463,1371903661,-0.645677924,0.102962077,-171.3421478,-0.012697768,-0.127286166,9.429263115,1.222452283,-1.316238761,0.405870378,-0.085205078,-0.41796875,-1.033691406, 
464,1371911994,-0.64590168,0.1030384,-171.342041,-0.02299362,-0.096287325,9.446418762,1.246247649,-1.403531909,0.485786706,-0.086669922,-0.416015625,-1.026367188, 
465,1371920327,-0.645570815,0.103451625,-171.3394012,-0.025371755,-0.117913343,9.430393219,1.316648483,-1.36631453,0.536618173,-0.083251953,-0.417480469,-1.029296875, 
466,1371928660,-0.645510733,0.102939546,-171.3392334,-0.015328927,-0.117507719,9.438966751,1.279853702,-1.474560261,0.490499794,-0.087890625,-0.4140625,-1.034179688, 
467,1371936993,-0.645711482,0.103027731,-171.338089,-0.026386585,-0.124313354,9.42070961,1.253368378,-1.406477571,0.497056991,-0.085205078,-0.416015625,-1.031738281, 
468,1371945326,-0.645958841,0.104002677,-171.338974,-0.016337855,-0.091903038,9.435783386,1.243917108,-1.293775082,0.36609149,-0.087890625,-0.414550781,-1.033203125, 
469,1371953659,-0.645510554,0.103738777,-171.3371887,-0.031137735,-0.107486457,9.424125671,1.329558015,-1.447216988,0.421251684,-0.088378906,-0.413574219,-1.032714844, 
470,1371961992,-0.645530879,0.103916094,-171.3370056,-0.019271607,-0.101875111,9.448714256,1.271490574,-1.392236114,0.492305577,-0.085693359,-0.416992188,-1.034912109, 
471,1371970325,-0.645752847,0.104167655,-171.3326111,0.001783394,-0.114092723,9.442498207,1.250243545,-1.386933923,0.493086785,-0.087402344,-0.414550781,-1.030273438, 
472,1371978658,-0.645793736,0.104406275,-171.3323669,-0.012689639,-0.131178588,9.432860374,1.268890738,-1.3834759,0.503537416,-0.087402344,-0.415527344,-1.034912109, 
473,1371986991,-0.646382332,0.104649894,-171.3286896,-0.014507644,-0.111530527,9.405835152,1.205649376,-1.38631928,0.45415321,-0.084716797,-0.417480469,-1.033691406, 
474,1371995324,-0.646688879,0.104535162,-171.3291779,-0.031682946,-0.111856617,9.419034958,1.235810041,-1.426495314,0.411748827,-0.085693359,-0.41796875,-1.03125, 
475,1372003657,-0.646322906,0.10447862,-171.3272247,-0.031845819,-0.121033251,9.440522194,1.321092486,-1.423434138,0.474823862,-0.084472656,-0.415039063,-1.033203125, 
476,1372011990,-0.646037459,0.104652137,-171.3272858,-0.025901889,-0.115359947,9.423196793,1.307914257,-1.390929818,0.462541908,-0.083251953,-0.416992188,-1.031738281, 
477,1372020323,-0.645753264,0.104089461,-171.32547,-0.019264927,-0.123602025,9.456871033,1.311256766,-1.484677911,0.46160692,-0.088623047,-0.415527344,-1.030273438, 
478,1372028656,-0.645936906,0.10426639,-171.3252258,-0.037185665,-0.134936124,9.426828384,1.250704646,-1.391570091,0.501539528,-0.086914063,-0.415039063,-1.03125, 
479,1372036989,-0.659431994,0.104868211,-171.3161469,-0.033576854,-0.108405583,9.417080879,1.38502562,-1.410140276,0.466140628,-0.084228516,-0.416015625,-1.030761719, 
480,1372045322,-0.659371614,0.105503142,-171.3166656,-0.027869195,-0.111865945,9.419085503,1.281646729,-1.335372567,0.410404116,-0.088378906,-0.415039063,-1.034912109, 
481,1372053655,-0.658928752,0.105354056,-171.3146973,-0.017072126,-0.112396069,9.418367386,1.331197381,-1.435075879,0.514308214,-0.08984375,-0.4140625,-1.033691406, 
482,1372061988,-0.658970714,0.105101384,-171.3150177,-0.019680338,-0.11319343,9.428344727,1.274333835,-1.442862749,0.43042165,-0.086914063,-0.414550781,-1.029296875, 
483,1372070321,-0.65938133,0.104342923,-171.3102875,-0.024668736,-0.119746409,9.416879654,1.230213404,-1.508473635,0.489782631,-0.085449219,-0.415527344,-1.031738281, 
484,1372078654,-0.659665823,0.103813745,-171.3098755,-0.028117213,-0.098532237,9.447126389,1.245325685,-1.476199508,0.518777907,-0.086181641,-0.416503906,-1.03125, 
485,1372086987,-0.659610033,0.103910297,-171.3078003,-0.00910513,-0.107248478,9.418643951,1.285053372,-1.407169104,0.533429265,-0.087402344,-0.413574219,-1.03125, 
486,1372095320,-0.658775032,0.103525773,-171.3072205,0.001249431,-0.101166889,9.428476334,1.379672527,-1.459524751,0.537604451,-0.086181641,-0.416503906,-1.032714844, 
487,1372103653,-0.65869683,0.103767551,-171.302597,-0.022623662,-0.132409394,9.439706802,1.287896514,-1.38857317,0.583402574,-0.087402344,-0.415039063,-1.033203125, 
488,1372111986,-0.65928781,0.104288936,-171.3023529,-0.007645135,-0.104105875,9.411977768,1.208722949,-1.349972606,0.500182033,-0.0859375,-0.412109375,-1.034179688, 
489,1372120319,-0.65939492,0.104618981,-171.2991638,-0.030393369,-0.125519335,9.433250427,1.26676476,-1.377687216,0.45412755,-0.086425781,-0.415039063,-1.032226563, 
490,1372128652,-0.659578383,0.10573034,-171.2988586,-0.020357911,-0.112447627,9.41848278,1.256339788,-1.279789686,0.507686913,-0.086425781,-0.413085938,-1.031738281, 
491,1372136985,-0.659931958,0.105311207,-171.2962189,-0.031711366,-0.130384177,9.441953659,1.236975431,-1.466286778,0.44659692,-0.084960938,-0.415039063,-1.030761719, 
492,1372145318,-0.659830034,0.105183281,-171.2962494,-0.01582342,-0.119096242,9.430434227,1.291239142,-1.428557038,0.466768146,-0.085449219,-0.415039063,-1.033203125, 
493,1372153651,-0.659247696,0.104791731,-171.2935791,-0.014061251,-0.120914668,9.412308693,1.34965241,-1.464493871,0.527870893,-0.086914063,-0.413085938,-1.031738281, 
494,1372161984,-0.658433199,0.104457967,-171.2938995,0.000959197,-0.105290145,9.444842339,1.376034975,-1.451456189,0.42897439,-0.083984375,-0.415527344,-1.034667969, 
495,1372170317,-0.659481168,0.104693793,-171.2896576,-0.003098431,-0.096657351,9.417167664,1.153818727,-1.388842106,0.529497504,-0.088378906,-0.4140625,-1.032714844, 
496,1372178650,-0.659828782,0.103923939,-171.2893982,-0.00334541,-0.104287639,9.43671608,1.237474918,-1.506641984,0.501091301,-0.084472656,-0.4140625,-1.032226563, 
497,1372186983,-0.659472108,0.10349898,-171.2867737,-0.020219142,-0.100726619,9.449652672,1.322667837,-1.465966582,0.41758889,-0.085693359,-0.417480469,-1.03125, 
498,1372195316,-0.659065723,0.103674859,-171.2866821,-0.014569636,-0.102319993,9.414487839,1.328828096,-1.392441273,0.481227487,-0.084960938,-0.412109375,-1.033203125, 
499,1372203649,-0.659745336,0.104556441,-171.2848969,-0.012897126,-0.108070962,9.450368881,1.197836757,-1.31080842,0.52687192,-0.086914063,-0.414550781,-1.032226563, 
500,1372211982,-0.659768403,0.105192959,-171.2854309,-0.007811968,-0.10313917,9.427556992,1.276703238,-1.335859179,0.407304794,-0.087158203,-0.416992188,-1.03125, 
501,1372220315,-0.660060108,0.105184391,-171.2815552,-0.016608333,-0.092054836,9.446316719,1.243276477,-1.41897738,0.551026225,-0.08203125,-0.415039063,-1.033691406, 
502,1372228648,-0.66042757,0.104992896,-171.2817383,-0.019485118,-0.110673413,9.424682617,1.235950708,-1.435268044,0.446929902,-0.083984375,-0.413085938,-1.031738281, 
503,1372236981,-0.660454869,0.104539424,-171.2804718,-0.030428326,-0.11558608,9.410042763,1.276011467,-1.471486449,0.564934731,-0.086914063,-0.413574219,-1.032226563, 
504,1372245314,-0.660497546,0.104102485,-171.280899,-0.020924073,-0.10859818,9.408789635,1.273373365,-1.463648677,0.416782081,-0.087402344,-0.413085938,-1.030273438, 
505,1372253647,-0.660728574,0.103760481,-171.2783508,-0.003274764,-0.10296277,9.416030884,1.252190351,-1.458397746,0.450516015,-0.0859375,-0.416503906,-1.037353516, 
506,1372261980,-0.65997678,0.104042567,-171.2779083,0.001289023,-0.096937455,9.422760963,1.369093657,-1.378199339,0.521160007,-0.088623047,-0.416992188,-1.033203125, 
507,1372270313,-0.659842074,0.104323827,-171.2761383,-0.014222356,-0.105983272,9.418279648,1.296003461,-1.382080078,0.413413733,-0.0859375,-0.4140625,-1.035888672, 
508,1372278646,-0.659091473,0.104720391,-171.2763062,0.004461112,-0.097437255,9.436208725,1.368888736,-1.365187526,0.449849963,-0.0859375,-0.415527344,-1.033203125, 
509,1372286979,-0.658732235,0.10411375,-171.273819,0.006250923,-0.081363671,9.394195557,1.321899295,-1.48830235,0.471353114,-0.087402344,-0.413574219,-1.033203125, 
510,1372295312,-0.658811629,0.103307776,-171.2729492,0.014334603,-0.079326481,9.399079323,1.269364595,-1.510458708,0.573835731,-0.085449219,-0.413085938,-1.030761719, 
511,1372303645,-0.659526289,0.102155097,-171.2697906,-0.009801909,-0.098925069,9.455728531,1.194404483,-1.555040121,0.507558823,-0.086914063,-0.414550781,-1.031738281, 
512,1372311978,-0.659632385,0.102743782,-171.2692566,0.001003905,-0.103074074,9.453533173,1.265253544,-1.343031049,0.533121884,-0.086425781,-0.414550781,-1.034179688, 
513,1372320311,-0.659914136,0.102806777,-171.2660675,-0.03648068,-0.114903994,9.435042381,1.245633006,-1.40878284,0.525821805,-0.087646484,-0.415527344,-1.03125, 
514,1372328644,-0.659937084,0.103634655,-171.2658234,-0.057658922,-0.122179538,9.429183006,1.275575995,-1.313625932,0.499925822,-0.0859375,-0.412597656,-1.03515625, 
515,1372336977,-0.659083009,0.103353113,-171.2617188,-0.063749015,-0.145614237,9.452803612,1.381439686,-1.450764775,0.558454335,-0.084472656,-0.411132813,-1.030273438, 
516,1372345310,-0.659063518,0.10373129,-171.2619476,-0.055087384,-0.130364016,9.439770699,1.281505585,-1.36582768,0.442972571,-0.086914063,-0.412109375,-1.03125, 
517,1372353643,-0.65862608,0.103467979,-171.2598572,-0.042302355,-0.123647347,9.419623375,1.331568837,-1.448356986,0.45415315,-0.086425781,-0.415039063,-1.03125, 
518,1372361976,-0.658521771,0.103337578,-171.2600098,-0.035248976,-0.129477784,9.417984962,1.292378902,-1.428044915,0.451950371,-0.083984375,-0.4140625,-1.030761719, 
519,1372370309,-0.658896148,0.103759028,-171.2577362,-0.012311586,-0.115377367,9.436750412,1.23387599,-1.364828825,0.412632495,-0.087402344,-0.415527344,-1.032714844, 
520,1372378642,-0.658652306,0.103474937,-171.2576599,-0.005536131,-0.084259763,9.420434952,1.30829823,-1.446794391,0.478371412,-0.08984375,-0.414550781,-1.032714844, 
521,1372386975,-0.659050643,0.103091449,-171.2552948,-0.005736913,-0.096961565,9.422096252,1.231532335,-1.460946202,0.430600882,-0.088378906,-0.413574219,-1.032226563, 
522,1372395308,-0.658480108,0.102614559,-171.2555389,-0.006797012,-0.098061495,9.430114746,1.34856391,-1.470833421,0.439565927,-0.083496094,-0.414550781,-1.032714844, 
523,1372403641,-0.658281982,0.103005715,-171.2518005,-0.03111529,-0.095966741,9.442285538,1.302829623,-1.369926095,0.502845824,-0.085449219,-0.412109375,-1.030273438, 
524,1372411974,-0.658690512,0.10334266,-171.2515869,-0.031288642,-0.09958446,9.424554825,1.230085135,-1.372282505,0.495392084,-0.084472656,-0.413574219,-1.032226563, 
525,1372420307,-0.658429503,0.103454955,-171.2489929,-0.040002685,-0.118258514,9.420316696,1.310949445,-1.402405024,0.480996907,-0.087402344,-0.415527344,-1.034179688, 
526,1372428640,-0.658496082,0.103320859,-171.2487946,-0.055505622,-0.106111459,9.408321381,1.269838452,-1.429222941,0.489500821,-0.086425781,-0.415039063,-1.032714844, 
527,1372436973,-0.657584071,0.104005031,-171.2469025,-0.039807741,-0.098284967,9.380309105,1.39009726,-1.33368206,0.371342391,-0.085449219,-0.414550781,-1.032714844, 
528,1372445306,-0.65740782,0.10351681,-171.2469482,-0.024673762,-0.089757413,9.415225029,1.299013138,-1.470410705,0.465269774,-0.085449219,-0.414550781,-1.032714844, 
529,1372453639,-0.657246888,0.102974594,-171.2453613,-0.013124008,-0.107356809,9.408664703,1.300268054,-1.482193112,0.460889697,-0.088867188,-0.414550781,-1.031738281, 
530,1372461972,-0.657023966,0.103072263,-171.2451477,0.000817623,-0.101742923,9.449556351,1.305186033,-1.400150776,0.492728204,-0.083984375,-0.4140625,-1.030273438, 
531,1372470305,-0.65741241,0.103197418,-171.2410431,0.006154746,-0.086086035,9.423774719,1.231891036,-1.402648211,0.416308105,-0.084716797,-0.419433594,-1.031738281, 
532,1372478638,-0.656948149,0.103974096,-171.2413635,-0.002572571,-0.092276588,9.414657593,1.334540129,-1.31828773,0.431151599,-0.088378906,-0.413574219,-1.033203125, 
533,1372486971,-0.656751275,0.104713231,-171.2386017,-0.001213414,-0.099621259,9.397105217,1.3031497,-1.327905893,0.490922421,-0.087402344,-0.412109375,-1.030761719, 
534,1372495304,-0.65680927,0.104060799,-171.238739,0.000436927,-0.115978621,9.419285774,1.271874785,-1.490274549,0.454678267,-0.083984375,-0.415039063,-1.034179688, 
535,1372503637,-0.657117426,0.103976019,-171.2358856,-0.022575865,-0.102027729,9.404289246,1.241931558,-1.427007318,0.426912427,-0.086914063,-0.4140625,-1.029785156, 
536,1372511970,-0.657057405,0.103543922,-171.236145,-0.018803092,-0.130495042,9.416337967,1.286167502,-1.463559031,0.436159194,-0.085449219,-0.414550781,-1.03515625, 
537,1372520303,-0.656878233,0.103369072,-171.2329407,-0.031011267,-0.127868041,9.438256264,1.301613092,-1.43789351,0.527730048,-0.085693359,-0.416503906,-1.033203125, 
538,1372528636,-0.657099843,0.103661835,-171.2333984,-0.036368176,-0.123929456,9.42041111,1.252113342,-1.376841903,0.415603757,-0.088378906,-0.415527344,-1.034912109, 
539,1372536969,-0.656797886,0.103265397,-171.2306519,-0.043014016,-0.112604685,9.440800667,1.315342188,-1.465326309,0.576038539,-0.086669922,-0.414550781,-1.027832031, 
540,1372545302,-0.657008886,0.103504844,-171.2308655,-0.028093351,-0.102319852,9.436686516,1.253586411,-1.383719325,0.443843454,-0.082275391,-0.420410156,-1.030273438, 
541,1372553635,-0.6565817,0.103204779,-171.228302,-0.02854776,-0.095649272,9.430904388,1.330480218,-1.451955676,0.489026934,-0.084716797,-0.416015625,-1.030273438, 
542,1372561968,-0.655973017,0.1031138,-171.2287292,-0.010717679,-0.098267756,9.392513275,1.351688743,-1.423114061,0.417332739,-0.086425781,-0.4140625,-1.032226563, 
543,1372570301,-0.65549463,0.103124909,-171.22789,-0.002625808,-0.087200962,9.394613266,1.337191105,-1.416454315,0.478653193,-0.089355469,-0.415039063,-1.034912109, 
544,1372578634,-0.655529261,0.103474736,-171.2266388,0.009036787,-0.078240521,9.413165092,1.275243282,-1.371924043,0.619621158,-0.084472656,-0.415527344,-1.032714844, 
545,1372586967,-0.655040681,0.104190052,-171.2218475,-0.014241295,-0.090965822,9.424952507,1.336717248,-1.331504703,0.500642955,-0.083007813,-0.4140625,-1.032714844, 
546,1372595300,-0.655618548,0.104737379,-171.2213898,-0.005857908,-0.090319857,9.433605194,1.209670663,-1.347513795,0.526718378,-0.089111328,-0.414550781,-1.029785156, 
547,1372603633,-0.655143738,0.105408691,-171.2200317,0.000949906,-0.099476308,9.384115219,1.336486816,-1.334860206,0.467933655,-0.085449219,-0.413574219,-1.032714844, 
548,1372611966,-0.655246973,0.105813779,-171.2195435,-0.016988834,-0.091560498,9.419150352,1.26552248,-1.36484158,0.53103435,-0.088134766,-0.417480469,-1.029296875, 
549,1372620299,-0.655437589,0.10593719,-171.2176819,-0.038885444,-0.106637307,9.427331924,1.25662148,-1.401995063,0.444675893,-0.084472656,-0.412109375,-1.036132813, 
550,1372628632,-0.655639708,0.10502591,-171.2170715,-0.037089773,-0.113963969,9.430128098,1.254931092,-1.521972179,0.541369677,-0.090820313,-0.412109375,-1.036865234, 
551,1372636965,-0.655497372,0.10569194,-171.2151337,-0.042397391,-0.113381349,9.397807121,1.294850826,-1.33644855,0.486798584,-0.085449219,-0.415039063,-1.033691406, 
552,1372645298,-0.655188441,0.10558562,-171.215271,-0.030513544,-0.107791737,9.420349121,1.317404151,-1.425893188,0.450695276,-0.087158203,-0.416992188,-1.032226563, 
553,1372653631,-0.655189037,0.105190009,-171.213501,-0.009965936,-0.113561288,9.424530029,1.278163195,-1.463981628,0.496006906,-0.086425781,-0.413574219,-1.032714844, 
554,1372661964,-0.654905915,0.104439184,-171.2128754,0.00839617,-0.130219445,9.430066109,1.313075304,-1.503299356,0.543726146,-0.083984375,-0.412597656,-1.03125, 
555,1372670297,-0.654825211,0.104071699,-171.2090607,-0.005002916,-0.125116557,9.438980103,1.288690567,-1.460856557,0.592265129,-0.084472656,-0.414550781,-1.034179688, 
556,1372678630,-0.655050874,0.10336148,-171.2084503,0.000246464,-0.111537069,9.430000305,1.250589371,-1.498932242,0.542202115,-0.086181641,-0.416015625,-1.030273438, 
557,1372686963,-0.655149937,0.102917522,-171.2071381,-0.003342095,-0.102614954,9.426252365,1.267840624,-1.470615864,0.460761696,-0.083496094,-0.415527344,-1.034179688, 
558,1372695296,-0.655439675,0.103119105,-171.207077,-0.025583263,-0.117889091,9.414206505,1.244147539,-1.387062192,0.477539033,-0.0859375,-0.413085938,-1.030761719, 
559,1372703629,-0.654892921,0.103171773,-171.2067108,-0.002531746,-0.096435413,9.398563385,1.344644785,-1.409512877,0.431779146,-0.085449219,-0.414550781,-1.033203125, 
560,1372711962,-0.654869735,0.102484912,-171.2060089,-0.024484996,-0.108035065,9.404646873,1.280891061,-1.495755911,0.551858723,-0.089111328,-0.415527344,-1.032714844, 
561,1372720295,-0.655933797,0.102961905,-171.2053986,-0.035658885,-0.106456205,9.448934555,1.1526407,-1.358387113,0.364593059,-0.086914063,-0.415039063,-1.03125, 
562,1372728628,-0.655979812,0.102095194,-171.2050171,-0.040784199,-0.10773097,9.438925743,1.273373365,-1.51736176,0.513962448,-0.084472656,-0.415527344,-1.034179688, 
563,1372736961,-0.655419052,0.101497717,-171.2013092,-0.028308863,-0.096339427,9.445982933,1.345272422,-1.488776088,0.552665532,-0.086425781,-0.414550781,-1.032714844, 
564,1372745294,-0.655152977,0.101403728,-171.2012939,-0.029040905,-0.116299286,9.430070877,1.312166095,-1.423357487,0.47058478,-0.085693359,-0.416503906,-1.03125, 
565,1372753627,-0.654542983,0.100431971,-171.199707,-0.02450791,-0.111999176,9.403560638,1.35221386,-1.531218886,0.375235707,-0.0859375,-0.412597656,-1.031738281, 
566,1372761960,-0.654366314,0.100586362,-171.1992645,-0.007496412,-0.101667203,9.4176054,1.299230695,-1.395821929,0.52086544,-0.087158203,-0.416015625,-1.032714844, 
567,1372770293,-0.653818667,0.101135097,-171.1969452,-0.007065167,-0.113541901,9.426655769,1.344773054,-1.350395441,0.496045321,-0.086181641,-0.416503906,-1.032714844, 
568,1372778626,-0.653738678,0.101774752,-171.197876,-0.013575017,-0.085950024,9.423155785,1.289407849,-1.335142016,0.360328287,-0.083740234,-0.416992188,-1.032226563, 
569,1372786959,-0.653154552,0.102139167,-171.1963654,-0.011393148,-0.09622132,9.431790352,1.34843576,-1.370873928,0.452526659,-0.084472656,-0.412109375,-1.032714844, 
570,1372795292,-0.653147936,0.102058165,-171.1957703,-0.015869912,-0.116227984,9.433023453,1.280353069,-1.423933744,0.543252289,-0.083984375,-0.412597656,-1.031738281, 
571,1372803625,-0.652380526,0.102482833,-171.1947021,-0.005559077,-0.127753779,9.431578636,1.370707512,-1.366007209,0.521646678,-0.087158203,-0.416503906,-1.031738281, 
572,1372811958,-0.652323961,0.102922633,-171.1944275,-0.046470165,-0.121241488,9.410354614,1.285873175,-1.360372186,0.503358185,-0.086914063,-0.412597656,-1.03125, 
573,1372820291,-0.652600169,0.103557706,-171.1919556,-0.024742071,-0.117383838,9.46895504,1.246119738,-1.339035392,0.51936698,-0.085693359,-0.416015625,-1.028808594, 
574,1372828624,-0.652996778,0.103493474,-171.1921082,-0.014774049,-0.120332859,9.429526329,1.230687141,-1.421282649,0.452372998,-0.086425781,-0.411132813,-1.034179688, 
575,1372836957,-0.652998447,0.104380086,-171.1907959,-0.034251701,-0.104774393,9.430708885,1.280161262,-1.309194922,0.445034564,-0.083496094,-0.4140625,-1.034667969, 
576,1372845290,-0.653285921,0.104228891,-171.1917419,-0.028992424,-0.106915064,9.41403389,1.244557142,-1.428429008,0.356511712,-0.086425781,-0.413085938,-1.036376953, 
577,1372853623,-0.653201759,0.103923976,-171.191925,-0.017690511,-0.105481863,9.431469917,1.289433479,-1.453454137,0.427591205,-0.087890625,-0.414550781,-1.030761719, 
578,1372861956,-0.652761817,0.103932202,-171.1921997,0.002602688,-0.095414437,9.41166687,1.331824899,-1.411190629,0.434276521,-0.085693359,-0.416992188,-1.033203125, 
579,1372870289,-0.652381003,0.104377262,-171.1891327,-0.020555496,-0.104534037,9.43820858,1.323961377,-1.362600446,0.478153706,-0.0859375,-0.4140625,-1.036865234, 
580,1372878622,-0.652183831,0.10455332,-171.188858,0.003923722,-0.108265348,9.428612709,1.303469777,-1.392133713,0.502435982,-0.086914063,-0.4140625,-1.03125, 
581,1372886955,-0.652115583,0.104599603,-171.1864929,-0.005963259,-0.094403945,9.417662621,1.287281752,-1.410806417,0.486299008,-0.087890625,-0.4140625,-1.030761719, 
582,1372895288,-0.651772678,0.104393713,-171.186264,-0.014969353,-0.106495366,9.455760956,1.320349813,-1.437189102,0.497287571,-0.086181641,-0.41796875,-1.034912109, 
583,1372903621,-0.651844859,0.105185576,-171.1840515,-0.019991048,-0.096762598,9.424274445,1.269262075,-1.319709301,0.401836067,-0.085693359,-0.418457031,-1.033203125, 
584,1372911954,-0.651816785,0.105417341,-171.1846466,-0.030768368,-0.103190489,9.43044281,1.282555819,-1.384359717,0.397993982,-0.085205078,-0.416503906,-1.03125, 
585,1372920287,-0.651909173,0.105212428,-171.1828461,-0.022321302,-0.109527208,9.426799774,1.268903494,-1.4414922,0.490819961,-0.085205078,-0.416992188,-1.029785156, 
586,1372928620,-0.651782572,0.104989737,-171.182663,-0.032358699,-0.113497637,9.421509743,1.293659687,-1.438725948,0.490781546,-0.088378906,-0.413574219,-1.033203125, 
587,1372936953,-0.652273595,0.10388384,-171.1815491,-0.036932494,-0.11962802,9.415780067,1.219493628,-1.548598051,0.470098019,-0.080322266,-0.41796875,-1.03125, 
588,1372945286,-0.651975572,0.103646807,-171.1813354,-0.048929509,-0.113289349,9.435630798,1.315367818,-1.442196608,0.496250242,-0.086914063,-0.415039063,-1.035888672, 
589,1372953619,-0.652234137,0.103655614,-171.1821289,-0.016432371,-0.10622225,9.425719261,1.248885989,-1.413700819,0.42136696,-0.086669922,-0.415527344,-1.028808594, 
590,1372961952,-0.652180731,0.104015522,-171.182663,-0.028761607,-0.10176076,9.429089546,1.284835815,-1.369503498,0.401964217,-0.086425781,-0.413085938,-1.029296875, 
591,1372970285,-0.652470171,0.10372784,-171.1807098,-0.014183773,-0.090031669,9.407855034,1.244774938,-1.45031631,0.47304371,-0.089599609,-0.415527344,-1.031738281, 
592,1372978618,-0.651925862,0.103598453,-171.1799927,-0.003136696,-0.111596607,9.416689873,1.344145656,-1.429530501,0.557967782,-0.083984375,-0.414550781,-1.032226563, 
593,1372986951,-0.6516155,0.103133224,-171.1765594,-0.002465854,-0.114555262,9.422962189,1.316097736,-1.472280622,0.489654511,-0.087402344,-0.415039063,-1.031738281, 
594,1372995284,-0.651561022,0.103273287,-171.1762085,-0.028595131,-0.112180077,9.419054985,1.284528136,-1.396347046,0.512079716,-0.087402344,-0.413574219,-1.035400391, 
595,1373003617,-0.651768088,0.103041135,-171.1737976,-0.028204037,-0.117113262,9.408869743,1.255123138,-1.443861723,0.504984677,-0.083007813,-0.415039063,-1.032714844, 
596,1373011950,-0.651545882,0.102217227,-171.1744537,-0.012789893,-0.097924449,9.436840057,1.305736661,-1.51074028,0.387159139,-0.089355469,-0.4140625,-1.032714844, 
597,1373020283,-0.651326716,0.102038279,-171.1725464,-0.011891713,-0.130499914,9.425934792,1.305557489,-1.439007521,0.493407011,-0.085205078,-0.416015625,-1.031738281, 
598,1373028616,-0.651340306,0.102192275,-171.172287,-0.012382844,-0.122110747,9.418124199,1.277266622,-1.39369607,0.499208599,-0.087890625,-0.414550781,-1.033203125, 
599,1373036949,-0.651898801,0.102648921,-171.1704865,-0.013585359,-0.11271175,9.419569016,1.212513804,-1.362498045,0.532737613,-0.086425781,-0.413085938,-1.033691406, 
600,1373045282,-0.651759684,0.102601662,-171.1698151,-0.034389891,-0.112589329,9.431923866,1.294761062,-1.419156671,0.550539553,-0.084960938,-0.415039063,-1.031738281, 
601,1373053615,-0.651324272,0.102512658,-171.1677856,-0.016236089,-0.095804907,9.422649384,1.331568718,-1.426917791,0.45658648,-0.083496094,-0.410644531,-1.031738281, 
602,1373061948,-0.651882946,0.102379501,-171.1682892,-0.035415642,-0.078258283,9.408780098,1.213461518,-1.427097082,0.409635633,-0.0859375,-0.415039063,-1.033203125, 
603,1373070281,-0.652137876,0.101566009,-171.1660309,-0.029167175,-0.106197909,9.426369667,1.248681068,-1.515184402,0.581891358,-0.084228516,-0.416992188,-1.032226563, 
604,1373078614,-0.651977897,0.101610929,-171.165863,-0.026940007,-0.10059496,9.411099434,1.297783613,-1.407963276,0.488886058,-0.086425781,-0.413085938,-1.032226563, 
605,1373086947,-0.651333332,0.102024101,-171.1643524,-0.013588375,-0.11620786,9.39116478,1.356004715,-1.36623764,0.405511737,-0.083984375,-0.413574219,-1.031738281, 
606,1373095280,-0.651174068,0.102110259,-171.1641235,-0.02515096,-0.102197044,9.397130966,1.298526287,-1.402558684,0.498388916,-0.085449219,-0.413574219,-1.034179688, 
607,1373103613,-0.651170611,0.10216812,-171.1620636,-0.028427191,-0.105353683,9.416956902,1.279828072,-1.409679294,0.569109857,-0.088378906,-0.4140625,-1.032226563, 
608,1373111946,-0.651034057,0.102518015,-171.1612854,-0.014957227,-0.117519788,9.411464691,1.295017242,-1.372513056,0.562731922,-0.087402344,-0.413574219,-1.03125, 
609,1373120279,-0.651415348,0.102481775,-171.1574707,-0.042153329,-0.123252563,9.417949677,1.233645678,-1.42164135,0.54472512,-0.088623047,-0.416015625,-1.033691406, 
610,1373128612,-0.651402175,0.102213405,-171.1573639,-0.025568806,-0.11166358,9.427973747,1.280212164,-1.444309831,0.482175142,-0.084960938,-0.412597656,-1.032226563, 
611,1373136945,-0.651547253,0.102400608,-171.1546478,-0.025131345,-0.121779799,9.420257568,1.262256503,-1.39379847,0.467318892,-0.084960938,-0.4140625,-1.032226563, 
612,1373145278,-0.6520437,0.102247305,-171.154892,-0.026297327,-0.124739692,9.426795959,1.218725204,-1.430619001,0.440923423,-0.086669922,-0.416503906,-1.033691406, 
613,1373153611,-0.651720107,0.102056384,-171.1537628,-0.021805398,-0.118921854,9.431578636,1.31836462,-1.440096378,0.484518856,-0.087402344,-0.414550781,-1.032226563, 
614,1373161944,-0.651761234,0.102229297,-171.1536865,-0.007643012,-0.107617617,9.421525955,1.274551511,-1.391851902,0.477923185,-0.082519531,-0.415039063,-1.032714844, 
615,1373170277,-0.651261508,0.102169104,-171.1516724,0.013431914,-0.1022221,9.411186218,1.338907242,-1.423178077,0.386774927,-0.085449219,-0.415039063,-1.033691406, 
616,1373178610,-0.65093863,0.101230532,-171.1522827,-0.004367124,-0.1063511,9.418162346,1.317673087,-1.524162173,0.397251129,-0.086181641,-0.416503906,-1.029785156, 
617,1373186943,-0.65090245,0.101028107,-171.1508026,0.016320895,-0.099831358,9.43194294,1.285539985,-1.441056967,0.484992683,-0.0859375,-0.4140625,-1.028320313, 
618,1373195276,-0.651089847,0.100775719,-171.1508331,0.010491507,-0.099770576,9.399727821,1.256339669,-1.44156909,0.465525895,-0.083007813,-0.416015625,-1.032714844, 
619,1373203609,-0.651337802,0.100580953,-171.1490173,-0.014647127,-0.107352346,9.437821388,1.248757958,-1.441184878,0.52689755,-0.088378906,-0.413574219,-1.030273438, 
620,1373211942,-0.65153116,0.100038275,-171.1486969,-0.020784041,-0.11464788,9.406485558,1.256634235,-1.477095962,0.507084966,-0.088134766,-0.414550781,-1.029785156, 
621,1373220275,-0.65079546,0.100517578,-171.1458435,-0.018048778,-0.110419646,9.426579475,1.367287755,-1.357925773,0.446968377,-0.087402344,-0.415039063,-1.032714844, 
622,1373228608,-0.650157332,0.099707894,-171.1469269,-0.01136685,-0.107735559,9.42028904,1.357131839,-1.508755207,0.339580715,-0.088378906,-0.413574219,-1.035888672, 
623,1373236941,-0.650346518,0.099212691,-171.1452789,-0.029451478,-0.105002403,9.406157494,1.256314158,-1.475226164,0.398442209,-0.083984375,-0.412597656,-1.031738281, 
624,1373245274,-0.650455177,0.098986529,-171.1446686,-0.016664797,-0.107618771,9.434995651,1.266380548,-1.440698266,0.5422405,-0.0859375,-0.415039063,-1.033203125, 
625,1373253607,-0.650427938,0.098824911,-171.1433716,-0.018715383,-0.121654972,9.409492493,1.282056451,-1.434525132,0.400952399,-0.084472656,-0.414550781,-1.032714844, 
626,1373261940,-0.650370538,0.098191485,-171.1430054,-0.03693546,-0.136725917,9.417841911,1.286564589,-1.488904357,0.514167309,-0.084472656,-0.416015625,-1.033203125, 
627,1373270273,-0.651441991,0.09835536,-171.1422424,-0.033012278,-0.108919352,9.44998455,1.151039481,-1.396052599,0.448389977,-0.084960938,-0.416015625,-1.032714844, 
628,1373278606,-0.651486874,0.098591276,-171.1423492,-0.028677667,-0.110090166,9.427674294,1.273706198,-1.383322239,0.457739174,-0.084960938,-0.411621094,-1.033691406, 
629,1373286939,-0.651105762,0.098926373,-171.140274,0.004671113,-0.116384737,9.431846619,1.325677633,-1.377815247,0.570902884,-0.086914063,-0.415039063,-1.034179688, 
630,1373295272,-0.650355995,0.098187007,-171.1399078,-0.021822672,-0.112474799,9.426114082,1.368376493,-1.502556682,0.509659231,-0.087158203,-0.416503906,-1.032226563, 
631,1373303605,-0.650928915,0.098208599,-171.1381989,-0.014446549,-0.107627615,9.436275482,1.211233139,-1.412419915,0.417499185,-0.088134766,-0.416503906,-1.030273438, 
632,1373311938,-0.65130198,0.097951859,-171.13797,-0.032823093,-0.103294797,9.407087326,1.233914614,-1.442837,0.496813655,-0.086425781,-0.411621094,-1.032226563, 
633,1373320271,-0.651538551,0.097686104,-171.1360474,-0.020466639,-0.090642586,9.454650879,1.251844525,-1.447754979,0.42022717,-0.083496094,-0.416503906,-1.034667969, 
634,1373328604,-0.651764095,0.098271132,-171.1358032,-0.01166393,-0.103466801,9.427556992,1.252856135,-1.342544436,0.501155317,-0.084472656,-0.413574219,-1.029296875, 
635,1373336937,-0.651974738,0.098352835,-171.1371613,-0.017154122,-0.106875926,9.444059372,1.254444361,-1.404582143,0.345087796,-0.086425781,-0.415527344,-1.034912109, 
636,1373345270,-0.652049184,0.098344818,-171.1376495,-0.004576129,-0.102268785,9.425552368,1.270197153,-1.41411078,0.412120283,-0.084472656,-0.4140625,-1.032714844, 
637,1373353603,-0.651708603,0.09749227,-171.1363373,-0.026774801,-0.099835187,9.425011635,1.320554495,-1.517694592,0.461094648,-0.084472656,-0.413574219,-1.03515625, 
638,1373361936,-0.652047694,0.096323416,-171.1363678,0.013373713,-0.100029223,9.405226707,1.237577319,-1.552081823,0.462029606,-0.086425781,-0.4140625,-1.031738281, 
639,1373370269,-0.651633024,0.096915476,-171.1350098,-0.006720193,-0.121761084,9.386844635,1.329430103,-1.345298052,0.512694597,-0.089599609,-0.416015625,-1.033935547, 
640,1373378602,-0.651588798,0.097060688,-171.1356964,-0.010243911,-0.091715157,9.404751778,1.28568089,-1.394477367,0.390181631,-0.089111328,-0.416015625,-1.035400391, 
641,1373386935,-0.651460052,0.097302862,-171.1320648,0.003120795,-0.112872042,9.41705513,1.294210315,-1.386818647,0.466537684,-0.084960938,-0.4140625,-1.036376953, 
642,1373395268,-0.651285529,0.097044781,-171.1318207,-0.011656338,-0.117815033,9.448065758,1.300076008,-1.444245815,0.499221414,-0.087890625,-0.413574219,-1.035888672, 
643,1373403601,-0.651410818,0.09703321,-171.1307678,-0.032248497,-0.10319531,9.425483704,1.265509725,-1.417389393,0.440654457,-0.086425781,-0.413085938,-1.031738281, 
644,1373411934,-0.651009619,0.096961334,-171.131546,-0.023565402,-0.104071625,9.436055183,1.326907039,-1.419515371,0.374134302,-0.084960938,-0.414550781,-1.031738281, 
645,1373420267,-0.651658535,0.097289748,-171.1300659,-0.018131163,-0.109674118,9.436499596,1.202677965,-1.375612378,0.373186558,-0.086669922,-0.416503906,-1.030761719, 
646,1373428600,-0.651834011,0.097245343,-171.1302185,-0.02406889,-0.111533083,9.421250343,1.256442308,-1.41659534,0.451105118,-0.085693359,-0.416503906,-1.030273438, 
647,1373436933,-0.651345789,0.096569441,-171.1287994,-0.035639364,-0.102797717,9.414834023,1.339240193,-1.497113585,0.485031098,-0.086914063,-0.415039063,-1.032714844, 
648,1373445266,-0.651436985,0.096511938,-171.1293335,-0.032086037,-0.097998947,9.438524246,1.267968655,-1.419822574,0.402796656,-0.085449219,-0.413574219,-1.034179688, 
649,1373453599,-0.651730716,0.096834622,-171.1268768,-0.040224571,-0.110515147,9.409995079,1.244890094,-1.376585841,0.510376394,-0.086914063,-0.414550781,-1.030273438, 
650,1373461932,-0.651185572,0.096282542,-171.1267242,-0.013166782,-0.099963538,9.429657936,1.34323597,-1.478927374,0.488617122,-0.085693359,-0.417480469,-1.033691406, 
651,1373470265,-0.650845826,0.09648525,-171.124115,-0.019960763,-0.130576938,9.418040276,1.321694493,-1.393529534,0.53095746,-0.084960938,-0.415039063,-1.036376953, 
652,1373478598,-0.650659919,0.096017696,-171.1239929,-0.013669873,-0.102204002,9.44034481,1.300383568,-1.46837461,0.484313995,-0.086425781,-0.415039063,-1.032226563, 
653,1373486931,-0.651034594,0.095395491,-171.1231995,-0.010934157,-0.101442143,9.418026924,1.234606266,-1.491427302,0.54117763,-0.089111328,-0.416503906,-1.032226563, 
654,1373495264,-0.651222587,0.095053755,-171.1227722,-0.021664985,-0.100838825,9.419974327,1.257146597,-1.453671813,0.520916641,-0.084960938,-0.416015625,-1.033203125, 
655,1373503597,-0.651229262,0.094812915,-171.1208191,-0.023788827,-0.095890135,9.429495811,1.278867364,-1.44534719,0.449785948,-0.0859375,-0.414550781,-1.033203125, 
656,1373511930,-0.651498854,0.094562389,-171.120224,-0.017349547,-0.107611597,9.42679882,1.247195482,-1.444027901,0.540729284,-0.088867188,-0.413085938,-1.028320313, 
657,1373520263,-0.650889516,0.094605915,-171.1184998,-0.010147683,-0.109743372,9.426555634,1.352777362,-1.410319686,0.4590455,-0.083007813,-0.415039063,-1.03125, 
658,1373528596,-0.650247812,0.095128931,-171.1190491,-0.021048795,-0.126310393,9.393371582,1.355389953,-1.347897887,0.404000491,-0.085205078,-0.416015625,-1.03125, 
659,1373536929,-0.650405288,0.095313132,-171.1181488,-0.018170523,-0.115005478,9.410728455,1.260297179,-1.394502878,0.522069275,-0.086425781,-0.412109375,-1.034667969, 
660,1373545262,-0.650939882,0.095453925,-171.1183777,-0.014622007,-0.105057038,9.44677639,1.215472221,-1.396603227,0.444560647,-0.086914063,-0.415039063,-1.030761719, 
661,1373553595,-0.650829256,0.095552325,-171.1157684,-0.013872454,-0.123469248,9.419584274,1.292392015,-1.404402971,0.560004056,-0.086425781,-0.4140625,-1.031738281, 
662,1373561928,-0.650756001,0.095266841,-171.1146393,-0.020449674,-0.103280514,9.43159008,1.287794113,-1.44933033,0.604252577,-0.086181641,-0.415527344,-1.030761719, 
663,1373570261,-0.650358081,0.095034331,-171.1128235,-0.014948625,-0.117566586,9.436814308,1.327880383,-1.44413054,0.490884006,-0.084472656,-0.416015625,-1.032714844, 
664,1373578594,-0.650258183,0.095615178,-171.1134949,-0.014780819,-0.126012534,9.427195549,1.290419579,-1.340918064,0.38987425,-0.084960938,-0.414550781,-1.032226563, 
665,1373586927,-0.650727928,0.096183337,-171.1132507,-0.013252661,-0.122741081,9.410313606,1.223848104,-1.348755717,0.477295607,-0.086425781,-0.414550781,-1.030761719, 
666,1373595260,-0.650665641,0.096664809,-171.1141052,-0.020114765,-0.116672426,9.412896156,1.28687191,-1.353840351,0.366245121,-0.086914063,-0.415527344,-1.035400391, 
667,1373603593,-0.650986314,0.096044295,-171.1134033,-0.045621522,-0.119021982,9.417312622,1.242098212,-1.488827348,0.430434406,-0.0859375,-0.4140625,-1.032714844, 
668,1373611926,-0.651109993,0.095494762,-171.1133423,-0.020432509,-0.126036882,9.428160667,1.263498902,-1.478363991,0.474452466,-0.0859375,-0.412109375,-1.032226563, 
669,1373620259,-0.651307821,0.09535455,-171.1114807,-0.021435721,-0.109403722,9.413724899,1.257287502,-1.434832454,0.536374867,-0.085449219,-0.4140625,-1.033691406, 
670,1373628592,-0.651471853,0.094737798,-171.1112366,-0.030263506,-0.096603535,9.425110817,1.258311987,-1.486752629,0.49674964,-0.088378906,-0.413574219,-1.036865234, 
671,1373636925,-0.651401043,0.094969139,-171.1103668,-0.021070037,-0.123326264,9.435085297,1.289433241,-1.387779236,0.485069573,-0.086181641,-0.416503906,-1.029296875, 
672,1373645258,-0.651507139,0.095300563,-171.1103058,-0.022331109,-0.129748583,9.442182541,1.266124368,-1.373025298,0.475874066,-0.084472656,-0.416015625,-1.035400391, 
673,1373653591,-0.651691914,0.095488437,-171.1085358,-0.024953017,-0.105681345,9.413973808,1.257364273,-1.394899964,0.570134401,-0.0859375,-0.413574219,-1.031738281, 
674,1373661924,-0.651349962,0.095824234,-171.108078,-0.019127289,-0.095035926,9.412334442,1.320606112,-1.372871876,0.52482295,-0.0859375,-0.415039063,-1.030761719, 
675,1373670257,-0.651401758,0.096404344,-171.1059265,-0.027419614,-0.109495215,9.412124634,1.273321986,-1.347359896,0.546261966,-0.087402344,-0.415039063,-1.034912109, 
676,1373678590,-0.652132809,0.096498065,-171.1061096,-0.005927691,-0.111080147,9.42092514,1.191138744,-1.401098728,0.448402792,-0.084960938,-0.414550781,-1.031738281, 
677,1373686923,-0.652705848,0.096743502,-171.1040955,-0.005579576,-0.102073126,9.420245171,1.211732507,-1.386460066,0.478934944,-0.088378906,-0.415039063,-1.032714844, 
678,1373695256,-0.653315842,0.096905507,-171.1040192,-0.013848504,-0.107987471,9.430132866,1.20507288,-1.392863631,0.479831517,-0.087158203,-0.416992188,-1.033691406, 
679,1373703589,-0.652736366,0.096770197,-171.1012573,-0.002195784,-0.109745406,9.449650764,1.350612879,-1.432975531,0.524861276,-0.091308594,-0.4140625,-1.034423828, 
680,1373711922,-0.653026462,0.097612657,-171.1010284,-0.005317443,-0.103573546,9.423809052,1.243007541,-1.311820269,0.500015497,-0.086914063,-0.414550781,-1.029785156, 
681,1373720255,-0.652784586,0.097793013,-171.0985107,-0.033599552,-0.095836259,9.405049324,1.310283303,-1.395361066,0.454434961,-0.085449219,-0.4140625,-1.03125, 
682,1373728588,-0.652783096,0.098431595,-171.0987854,-0.024930492,-0.110890865,9.447237015,1.277651072,-1.334732294,0.438093096,-0.0859375,-0.413574219,-1.030761719, 
683,1373736921,-0.653098881,0.09826491,-171.0973053,-0.020744989,-0.084164582,9.413921356,1.242700338,-1.436049342,0.489872277,-0.083496094,-0.4140625,-1.027832031, 
684,1373745254,-0.652504563,0.097315989,-171.0977631,-0.015781118,-0.118175425,9.410526276,1.350433588,-1.52592957,0.412261099,-0.0859375,-0.414550781,-1.030761719, 
685,1373753587,-0.652274251,0.097584769,-171.0978394,-0.019747568,-0.119966768,9.408190727,1.307171226,-1.383616805,0.381472766,-0.084228516,-0.416992188,-1.030273438, 
686,1373761920,-0.652458847,0.098272584,-171.0985718,-0.016683821,-0.115400739,9.415171623,1.257402778,-1.328085303,0.381447166,-0.086181641,-0.416503906,-1.031738281, 
687,1373770253,-0.651798904,0.097631857,-171.0988617,-0.013556411,-0.107502609,9.449616432,1.359654665,-1.493450761,0.460620761,-0.087890625,-0.412597656,-1.033691406, 
688,1373778586,-0.651619077,0.097864501,-171.0985413,-0.027160522,-0.11244148,9.393125534,1.301292777,-1.385294557,0.507200241,-0.087646484,-0.415527344,-1.031738281, 
689,1373786919,-0.651724637,0.097382404,-171.0976257,-0.033765532,-0.094249241,9.431490898,1.26668787,-1.474662662,0.513808727,-0.085449219,-0.413574219,-1.03515625, 
690,1373795252,-0.651309609,0.097834393,-171.0974274,-0.042101189,-0.119085535,9.408443451,1.329033017,-1.357221484,0.493547916,-0.086425781,-0.4140625,-1.035888672, 
691,1373803585,-0.650756717,0.098437443,-171.0956421,-0.026733119,-0.108544223,9.422167778,1.346745253,-1.343376875,0.460082889,-0.085449219,-0.413085938,-1.030273438, 
692,1373811918,-0.651383162,0.098534621,-171.0954895,-0.031618584,-0.109544873,9.427289009,1.202447414,-1.402302384,0.489065409,-0.085449219,-0.415527344,-1.033203125, 
693,1373820251,-0.651521146,0.098839238,-171.0951538,-0.03699822,-0.114432842,9.431088448,1.264741182,-1.377815247,0.407253504,-0.086425781,-0.4140625,-1.030761719, 
694,1373828584,-0.651860058,0.097924963,-171.095108,-0.022501554,-0.108377852,9.426799774,1.23788476,-1.522958398,0.471327513,-0.086425781,-0.414550781,-1.034667969, 
695,1373836917,-0.651807249,0.097267479,-171.0936584,-0.014813947,-0.108434528,9.415024757,1.28700006,-1.495359182,0.457739234,-0.084472656,-0.415039063,-1.029785156, 
696,1373845250,-0.651723087,0.097924113,-171.0941315,-0.015781723,-0.111056171,9.421686172,1.289305329,-1.33365643,0.412453204,-0.084716797,-0.418945313,-1.033203125, 
697,1373853583,-0.651811659,0.098424971,-171.094101,-0.008813109,-0.103216447,9.468677521,1.269710422,-1.355787039,0.444983274,-0.083251953,-0.416503906,-1.030273438, 
698,1373861916,-0.651673853,0.097857811,-171.0930786,-0.031688876,-0.102729581,9.425863266,1.295299053,-1.48206532,0.589780569,-0.08984375,-0.413574219,-1.03125, 
699,1373870249,-0.65158546,0.098205805,-171.0932159,0.003218585,-0.116600007,9.441682816,1.291149616,-1.374075651,0.451207519,-0.086425781,-0.413085938,-1.03125, 
700,1373878582,-0.65185833,0.099119715,-171.0937195,-0.018181093,-0.114872605,9.434011459,1.245633125,-1.301433921,0.411864132,-0.0859375,-0.415527344,-1.033203125, 
701,1373886915,-0.651851177,0.099507123,-171.0920715,-0.021227906,-0.115872115,9.440686226,1.281044722,-1.369618654,0.491229773,-0.086425781,-0.413574219,-1.030761719, 
702,1373895248,-0.65176481,0.098907061,-171.0913086,-0.022233041,-0.127208859,9.4260149,1.289907217,-1.485536098,0.560849309,-0.086914063,-0.413085938,-1.031738281, 
703,1373903581,-0.651974499,0.09859439,-171.0891113,-0.003806461,-0.117445759,9.407614708,1.253637671,-1.453979373,0.526808023,-0.0859375,-0.415527344,-1.031738281, 
704,1373911914,-0.651777625,0.098279744,-171.0899658,-0.020002266,-0.104351707,9.431319237,1.303021669,-1.449291825,0.366360396,-0.084716797,-0.416015625,-1.030273438, 
705,1373920247,-0.651545048,0.098391548,-171.0876923,-0.01734852,-0.103683032,9.436985016,1.309194803,-1.404441237,0.549143612,-0.087158203,-0.415527344,-1.031738281, 
706,1373928580,-0.650919735,0.098298632,-171.0878448,-0.03498074,-0.103723519,9.4177742,1.352726102,-1.423511028,0.45169425,-0.084716797,-0.41796875,-1.034912109, 
707,1373936913,-0.651095152,0.098115832,-171.0871582,-0.033369303,-0.112772159,9.41929245,1.259554505,-1.436638474,0.4429214,-0.084228516,-0.417480469,-1.030273438, 
708,1373945246,-0.650699139,0.098810717,-171.0874634,-0.02122811,-0.113846876,9.414405823,1.327304125,-1.330237031,0.432521999,-0.083496094,-0.4140625,-1.032226563, 
709,1373953579,-0.650061488,0.099117503,-171.0889435,-0.032242175,-0.102840878,9.437588692,1.356926799,-1.377661586,0.425234705,-0.086914063,-0.415039063,-1.031738281, 
710,1373961912,-0.649487615,0.099368453,-171.0890656,-0.024196625,-0.095361441,9.426591873,1.347398639,-1.383732319,0.454358131,-0.084960938,-0.412597656,-1.028808594, 
711,1373970245,-0.649703264,0.099292375,-171.087265,-0.022416402,-0.099066339,9.440439224,1.254636407,-1.424036145,0.483673543,-0.086425781,-0.415527344,-1.032226563, 
712,1373978578,-0.650155008,0.09954685,-171.088028,-0.018738689,-0.106097899,9.417085648,1.224808693,-1.382579446,0.377669066,-0.088623047,-0.416015625,-1.03125, 
713,1373986911,-0.649794221,0.099602558,-171.0861816,-0.00174445,-0.106496289,9.433728218,1.323602915,-1.410319805,0.541958809,-0.085449219,-0.416015625,-1.033203125, 
714,1373995244,-0.649347723,0.09947481,-171.0862122,-0.030702779,-0.092381001,9.420032501,1.33236289,-1.427225232,0.464962423,-0.087646484,-0.416992188,-1.033203125, 
715,1374003577,-0.649523437,0.099377222,-171.0854492,-0.03632044,-0.108075216,9.438490868,1.259938717,-1.426905036,0.443971545,-0.08203125,-0.413085938,-1.032714844, 
716,1374011910,-0.649904966,0.099010654,-171.0850677,-0.013966739,-0.119229279,9.418402672,1.231583595,-1.457667589,0.5157426,-0.084960938,-0.413574219,-1.03125, 
