PacketCounter,SampleTimeFine,Euler_X,Euler_Y,Euler_Z,Acc_X,Acc_Y,Acc_Z,Gyr_X,Gyr_Y,Gyr_Z,Mag_X,Mag_Y,Mag_Z,
1,568311627,-1.645224929,-0.75070399,-106.8552017,0.125016108,-0.247564033,9.554501534,2.388284206,-4.16651392,0.609631658,-0.875,-0.2734375,-1.509277344, 
2,568319960,-1.634113193,-0.771792293,-106.853157,0.100931898,-0.249501735,9.355372429,2.611153841,-3.933424473,0.603791595,-0.872070313,-0.273925781,-1.502929688, 
3,568328293,-1.627278447,-0.791917205,-106.8532867,0.121392317,-0.241787463,9.23156929,2.09314394,-3.83525753,0.520225167,-0.875,-0.270507813,-1.506835938, 
4,568336626,-1.626939178,-0.816711247,-106.8506851,0.11299365,-0.235011429,9.182591438,1.31970942,-4.378548622,0.657402217,-0.875,-0.272460938,-1.507324219, 
5,568344959,-1.632600307,-0.840889156,-106.8490677,0.064095296,-0.214428216,9.22524929,0.597234309,-4.325834274,0.720669329,-0.876464844,-0.270507813,-1.506347656, 
6,568353292,-1.6370157,-0.850839019,-106.8417358,0.099471517,-0.199228287,9.342811584,0.756529331,-2.616033077,1.274679661,-0.874511719,-0.270019531,-1.506835938, 
7,568361625,-1.641222835,-0.856719673,-106.8285446,0.164199755,-0.19961378,9.39891243,0.793336868,-2.170703888,2.167950392,-0.874023438,-0.271484375,-1.508300781, 
8,568369958,-1.645172715,-0.873785198,-106.8132935,0.17236948,-0.267136276,9.442227364,0.827864885,-3.495933056,2.199507236,-0.876464844,-0.272949219,-1.505859375, 
9,568378291,-1.649327636,-0.898465514,-106.7979736,0.240683824,-0.237908453,9.502547264,0.802852571,-4.43424654,2.355100632,-0.875488281,-0.269042969,-1.507324219, 
10,568386624,-1.649176598,-0.92995888,-106.7778473,0.151115566,-0.266483873,9.54658699,1.331095099,-5.243375301,2.731886625,-0.875976563,-0.268554688,-1.506835938, 
11,568394957,-1.646133542,-0.968349874,-106.7597961,0.162189811,-0.264099926,9.565880775,1.675619245,-6.087095261,2.643529892,-0.877441406,-0.272949219,-1.505371094, 
12,568403290,-1.637476802,-1.016040206,-106.7375259,0.199557915,-0.304895312,9.524718285,2.358981848,-7.194271564,2.935968161,-0.878417969,-0.269042969,-1.505371094, 
13,568411623,-1.623784304,-1.06344974,-106.7174072,0.178251922,-0.291039377,9.523475647,2.961018085,-7.175904274,2.855129004,-0.876953125,-0.26953125,-1.508300781, 
14,568419956,-1.608279109,-1.094989657,-106.7004852,0.21257633,-0.323510349,9.466645241,3.173232317,-5.237291336,2.349734783,-0.87890625,-0.270019531,-1.505371094, 
15,568428289,-1.594566226,-1.112874746,-106.6949005,0.272087395,-0.334741801,9.405496597,2.932932615,-3.583931446,1.212424278,-0.880859375,-0.270996094,-1.504394531, 
16,568436622,-1.584169626,-1.13268292,-106.6910934,0.26154539,-0.331664801,9.379834175,2.530276775,-3.78618145,0.82037282,-0.8828125,-0.270507813,-1.50390625, 
17,568444955,-1.578147173,-1.16553843,-106.6863708,0.202977687,-0.281697094,9.350416183,2.009308815,-5.37536478,1.064041018,-0.881835938,-0.270996094,-1.50390625, 
18,568453288,-1.565872908,-1.19983983,-106.6728287,0.199758515,-0.2733275,9.330178261,2.780758381,-5.555893421,1.939304829,-0.879394531,-0.271972656,-1.506347656, 
19,568461621,-1.556640625,-1.226143122,-106.6593323,0.144383863,-0.273073375,9.372135162,2.417202473,-4.618630886,2.136137486,-0.880859375,-0.270996094,-1.505859375, 
20,568469954,-1.551940918,-1.263480902,-106.64254,0.198751092,-0.237331033,9.298200607,1.881173253,-5.930873394,2.322839737,-0.881347656,-0.271484375,-1.503417969, 
21,568478287,-1.540873766,-1.313396931,-106.6240616,0.268133789,-0.207842484,9.361112595,2.655299425,-7.466050148,2.659730673,-0.883789063,-0.271484375,-1.505859375, 
22,568486620,-1.522156835,-1.357477307,-106.5976791,0.303440094,-0.194407806,9.337457657,3.593472242,-6.769624233,3.450339794,-0.880371094,-0.270019531,-1.503417969, 
23,568494953,-1.487071991,-1.374191523,-106.5696716,0.238769531,-0.198217496,9.266091347,5.561094284,-3.50763917,3.737514019,-0.884765625,-0.2734375,-1.503417969, 
24,568503286,-1.44393456,-1.361273766,-106.5452576,0.216571569,-0.207195461,9.332784653,6.521268845,0.078110613,3.396485806,-0.883300781,-0.274414063,-1.501464844, 
25,568511619,-1.40361762,-1.348438859,-106.5198288,0.250966311,-0.172677979,9.558771133,6.18540287,0.045260355,3.685991049,-0.884277344,-0.274414063,-1.500976563, 
26,568519952,-1.356752753,-1.35541749,-106.4898376,0.242287114,-0.159927547,9.604943275,6.983311176,-2.320124865,4.007142067,-0.882324219,-0.2734375,-1.498535156, 
27,568528285,-1.307375431,-1.380426764,-106.462471,0.2717053,-0.227611497,9.618741035,7.278913975,-4.495196342,3.812922955,-0.884277344,-0.274414063,-1.501953125, 
28,568536618,-1.261983275,-1.422993064,-106.4343643,0.305021584,-0.178202406,9.653460503,6.803333282,-6.580041409,3.683929205,-0.887695313,-0.273925781,-1.502929688, 
29,568544951,-1.216865182,-1.467936039,-106.4119034,0.228949875,-0.194851518,9.50961113,6.757612705,-6.8673563,3.174257278,-0.884277344,-0.276367188,-1.499511719, 
30,568553284,-1.17154026,-1.506180525,-106.391449,0.259824365,-0.134500593,9.539056778,6.777719975,-6.035790443,2.788455725,-0.888183594,-0.274414063,-1.500488281, 
31,568561617,-1.112036347,-1.55872035,-106.3586121,0.298523843,-0.020438453,9.659851074,8.522202492,-7.798945904,4.413447857,-0.887207031,-0.275390625,-1.497558594, 
32,568569950,-1.048597813,-1.637116551,-106.3181076,0.311077803,-0.162685663,9.537288666,9.021834373,-10.89514542,5.111616135,-0.889648438,-0.273925781,-1.498535156, 
33,568578283,-1.002268553,-1.726608992,-106.2812119,0.367061824,-0.20875977,9.438056946,6.967150688,-12.23283863,4.838555813,-0.891113281,-0.276367188,-1.498046875, 
34,568586616,-0.975959659,-1.803999662,-106.2507401,0.3389709,-0.163301602,9.445864677,4.543478966,-10.74638844,3.925484419,-0.893554688,-0.276855469,-1.49609375, 
35,568594949,-0.981795013,-1.849136114,-106.2319565,0.362219721,-0.204467684,9.322642326,0.648270786,-6.870058537,2.753299952,-0.891113281,-0.275878906,-1.495605469, 
36,568603282,-0.996155024,-1.881015778,-106.2192841,0.292431444,-0.168035686,9.334993362,-0.400914043,-5.248997688,1.885553598,-0.892089844,-0.276855469,-1.495117188, 
37,568611615,-1.014657736,-1.906279087,-106.2174377,0.246648565,-0.176021188,9.278821945,-0.935419083,-4.450102806,0.765455902,-0.891601563,-0.275878906,-1.498535156, 
38,568619948,-1.028635263,-1.923787713,-106.2220459,0.24474743,-0.151209578,9.241211891,-0.422327489,-3.488120794,-0.160857379,-0.893554688,-0.274902344,-1.497558594, 
39,568628281,-1.047555566,-1.951334715,-106.2263718,0.198350206,-0.168504357,9.278097153,-1.012428164,-4.712865353,0.013357824,-0.896484375,-0.278320313,-1.497558594, 
40,568636614,-1.068587542,-1.992529273,-106.2264633,0.292244285,-0.196693435,9.327900887,-1.249705791,-6.338588715,0.326017976,-0.895996094,-0.274902344,-1.49609375, 
41,568644947,-1.088599563,-2.045051813,-106.2190857,0.34240365,-0.201065928,9.351523399,-1.099785805,-7.732157707,1.196697235,-0.896484375,-0.275390625,-1.491699219, 
42,568653280,-1.107201695,-2.09323287,-106.2062454,0.446352869,-0.226957038,9.370677948,-0.902645707,-7.206923485,1.857710958,-0.896972656,-0.275878906,-1.495605469, 
43,568661613,-1.11719048,-2.127309799,-106.1915665,0.326615095,-0.278110534,9.394330978,0.143862337,-5.537874222,2.280268669,-0.8984375,-0.276855469,-1.49609375, 
44,568669946,-1.111648798,-2.155325413,-106.1761398,0.254460245,-0.234199017,9.474728584,2.008002281,-4.794844151,2.212532043,-0.896972656,-0.273925781,-1.495117188, 
45,568678279,-1.099007368,-2.180192471,-106.1579742,0.297847122,-0.21958442,9.410768509,2.870062113,-4.438332081,2.549269438,-0.899414063,-0.274414063,-1.495117188, 
46,568686612,-1.083478212,-2.219883919,-106.1312103,0.302372426,-0.230247125,9.432723999,3.260859251,-6.220007896,3.546150684,-0.896972656,-0.276855469,-1.494140625, 
47,568694945,-1.075374126,-2.273804426,-106.1080017,0.306452125,-0.285457909,9.363846779,2.35206604,-7.935905457,3.092060804,-0.899414063,-0.275878906,-1.493164063, 
48,568703278,-1.073011637,-2.312175274,-106.1017456,0.415140718,-0.326702595,9.329533577,1.58871007,-6.013761044,1.094201684,-0.901367188,-0.2734375,-1.491210938, 
49,568711611,-1.071196318,-2.326301813,-106.1060638,0.386193722,-0.268719792,9.350113869,1.474163413,-3.102012157,0.038690303,-0.900390625,-0.274414063,-1.4921875, 
50,568719944,-1.064962506,-2.320306301,-106.1215134,0.352884084,-0.291041017,9.40144062,1.947117448,-0.643211961,-1.40759182,-0.900878906,-0.276855469,-1.493164063, 
51,568728277,-1.053220034,-2.316665649,-106.1325836,0.407253832,-0.158675358,9.513662338,2.63432169,-0.95498842,-0.723845482,-0.8984375,-0.274902344,-1.494628906, 
52,568736610,-1.031983614,-2.322482347,-106.1370468,0.444411457,-0.205504462,9.472158432,3.800397158,-2.084870815,-0.117313206,-0.899902344,-0.275390625,-1.491699219, 
53,568744943,-1.013797879,-2.34171772,-106.1391449,0.467355549,-0.194262996,9.532173157,3.451198101,-3.719673157,0.305565029,-0.900390625,-0.276367188,-1.491210938, 
54,568753276,-0.999597549,-2.375081301,-106.1322479,0.354094446,-0.158165768,9.581702232,3.012003422,-5.414606094,1.183864474,-0.900390625,-0.276855469,-1.490722656, 
55,568761609,-0.98701632,-2.409635544,-106.1240692,0.276679188,-0.169890299,9.571634293,2.829950333,-5.578344822,1.501288772,-0.901367188,-0.275390625,-1.493652344, 
56,568769942,-0.977622271,-2.442290545,-106.1191177,0.158336058,-0.153480917,9.574149132,2.426167488,-5.325251102,0.955321372,-0.90234375,-0.275878906,-1.491699219, 
57,568778275,-0.963801384,-2.46395874,-106.1250534,0.241072744,-0.155044898,9.476989746,2.907126427,-4.003582001,-0.163290769,-0.903320313,-0.277832031,-1.490722656, 
58,568786608,-0.944110036,-2.49287796,-106.1321106,0.353831232,-0.107981615,9.562940598,3.600196123,-4.852950096,-0.475118488,-0.903808594,-0.279785156,-1.48828125, 
59,568794941,-0.919940472,-2.536935806,-106.1371384,0.307466537,-0.118525557,9.534427643,4.15389967,-6.692052364,-0.094465308,-0.90234375,-0.275878906,-1.492675781, 
60,568803274,-0.891852796,-2.58668828,-106.1392288,0.28201437,-0.079739206,9.438867569,4.632859707,-7.363478661,0.082029596,-0.903808594,-0.276855469,-1.485839844, 
61,568811607,-0.86535877,-2.625321865,-106.1389771,0.22854121,-0.006912025,9.428059578,4.46073246,-6.051671028,0.563193083,-0.902832031,-0.280761719,-1.487792969, 
62,568819940,-0.833950818,-2.639877796,-106.1323471,0.254379272,0.013713973,9.320230484,5.078880787,-3.155930042,1.196658731,-0.904296875,-0.278808594,-1.48828125, 
63,568828273,-0.802379072,-2.640882015,-106.11763,0.360786408,0.043569364,9.28556633,5.149806023,-1.56226337,2.35119462,-0.904296875,-0.277832031,-1.488769531, 
64,568836606,-0.772750556,-2.655256033,-106.0952454,0.480674177,-0.021420285,9.293684959,4.953587532,-3.158042908,3.092893124,-0.905273438,-0.275878906,-1.489746094, 
65,568844939,-0.749462008,-2.674722433,-106.078743,0.554041982,-0.021865182,9.278876305,4.165463924,-3.779111624,2.541675091,-0.907226563,-0.278320313,-1.486816406, 
66,568853272,-0.727962077,-2.695662498,-106.0616302,0.558151424,0.020895593,9.387272835,3.949996948,-3.936024666,2.447516918,-0.905761719,-0.279296875,-1.484375, 
67,568861605,-0.709614635,-2.721705198,-106.0483627,0.519797862,0.026620252,9.372200012,3.556511164,-4.560295105,2.145550966,-0.905273438,-0.278320313,-1.487792969, 
68,568869938,-0.696682692,-2.752621412,-106.0323639,0.528447986,0.043886099,9.350709915,2.917179823,-5.130544662,2.30236125,-0.90625,-0.279785156,-1.486816406, 
69,568878271,-0.683376193,-2.796421289,-106.0095673,0.583894253,-0.003315208,9.406798363,3.007521629,-6.704258442,3.258285046,-0.908691406,-0.278808594,-1.486816406, 
70,568886604,-0.664663613,-2.854344845,-105.977272,0.720156908,-0.069222018,9.489209175,3.710657835,-8.392645836,4.218972683,-0.904296875,-0.279296875,-1.487304688, 
71,568894937,-0.637003899,-2.929740191,-105.9482117,0.783103585,-0.172363341,9.727806091,4.774044991,-10.50178528,3.972498655,-0.909179688,-0.278808594,-1.486816406, 
72,568903270,-0.605327308,-3.030266047,-105.9206619,0.709053576,-0.150280401,9.746634483,5.247935772,-13.49435234,3.59832716,-0.909667969,-0.28125,-1.481933594, 
73,568911603,-0.5687837,-3.132351637,-105.9074631,0.63315767,-0.176811531,9.605766296,5.750000477,-13.68079758,2.048486471,-0.912109375,-0.282226563,-1.485839844, 
74,568919936,-0.528630495,-3.228658915,-105.8904648,0.648445964,-0.122484326,9.597824097,6.205202103,-12.97357178,2.353000641,-0.914550781,-0.280273438,-1.483886719, 
75,568928269,-0.472459078,-3.312991619,-105.8793411,0.727958143,-0.255899161,9.584139824,8.097275734,-11.5448122,1.832621932,-0.913085938,-0.281738281,-1.481933594, 
76,568936602,-0.413965255,-3.383123398,-105.8794479,0.660473168,-0.276620299,9.453030586,8.292315483,-9.812867165,0.350697368,-0.9140625,-0.279785156,-1.481933594, 
77,568944935,-0.356562793,-3.428692102,-105.8930969,0.536379874,-0.1903961,9.304002762,8.07122612,-6.871109009,-1.088156819,-0.916503906,-0.285644531,-1.482421875, 
78,568953268,-0.303452879,-3.460186958,-105.9078751,0.496554345,-0.11771518,9.251990318,7.541368961,-5.165354729,-1.362075448,-0.918457031,-0.284179688,-1.483398438, 
79,568961601,-0.249900028,-3.475810528,-105.9254608,0.405325472,-0.10041187,9.152129173,7.579534531,-3.277174711,-1.535304308,-0.921386719,-0.284667969,-1.480957031, 
80,568969934,-0.207489118,-3.475384951,-105.946907,0.444990814,-0.11606697,8.95293045,6.207097054,-1.336000204,-2.136214495,-0.916503906,-0.28515625,-1.479980469, 
81,568978267,-0.178480878,-3.468856573,-105.9717255,0.456727684,-0.081433423,8.835441589,4.572000027,-0.618430078,-2.539420843,-0.915527344,-0.286132813,-1.482910156, 
82,568986600,-0.167164773,-3.467883587,-105.9903717,0.470149785,-0.002373797,8.75467205,2.496145487,-1.274000764,-1.804702044,-0.915039063,-0.286621094,-1.479492188, 
83,568994933,-0.15292497,-3.448677301,-106.0083084,0.559109628,-0.042428356,8.938866615,2.86020112,0.898406625,-1.559112906,-0.916992188,-0.286132813,-1.479003906, 
84,569003266,-0.142795205,-3.418730497,-106.0215988,0.621391058,0.040394809,9.306936264,2.393688917,2.200762272,-1.15233326,-0.917480469,-0.286132813,-1.478027344, 
85,569011599,-0.122785643,-3.410386086,-106.0235748,0.572460413,0.045613244,9.479781151,3.668483019,-0.410621732,0.362018734,-0.914550781,-0.287597656,-1.478515625, 
86,569019932,-0.104635999,-3.416465282,-106.0254059,0.549608588,-0.050534092,9.463102341,3.439850569,-2.125597239,0.207974762,-0.9140625,-0.288085938,-1.480957031, 
87,569028265,-0.088479616,-3.423865795,-106.0267639,0.654676437,0.02314475,9.603735924,3.210244656,-2.300824165,0.427796125,-0.916503906,-0.2890625,-1.479492188, 
88,569036598,-0.066379063,-3.445930481,-106.019455,0.641191185,0.004544637,9.709709167,3.978672266,-4.045717239,1.303393006,-0.915039063,-0.288085938,-1.480957031, 
89,569044931,-0.037618894,-3.485639572,-106.0095901,0.680016875,0.009045543,9.747598648,4.80532074,-6.178077698,1.773440123,-0.917480469,-0.286621094,-1.4765625, 
90,569053264,0.000467573,-3.541954756,-105.9942474,0.728043795,-0.003970208,9.773269653,5.956604004,-8.155496597,2.265924931,-0.916015625,-0.286621094,-1.4765625, 
91,569061597,0.047782917,-3.614274979,-105.9827652,0.710529983,-0.0633412,9.56469059,7.045695305,-10.08960152,1.97440958,-0.917480469,-0.2890625,-1.479003906, 
92,569069930,0.100580797,-3.677382469,-105.9766769,0.67608577,-0.079090968,9.420151711,7.656633377,-8.969171524,1.165832043,-0.920898438,-0.290527344,-1.477050781, 
93,569078263,0.14409259,-3.734140396,-105.9759598,0.627016246,-0.018284088,9.259280205,6.508962154,-8.222362518,0.692634583,-0.916503906,-0.291992188,-1.474121094, 
94,569086596,0.175110742,-3.798878193,-105.9838181,0.5621894,-0.021127669,9.170846939,4.934967041,-9.167604446,-0.488834888,-0.919433594,-0.291992188,-1.479003906, 
95,569094929,0.195332706,-3.873301744,-105.9891357,0.662493169,0.065831035,9.208574295,3.667318106,-10.34380913,-0.015739946,-0.922363281,-0.290527344,-1.476074219, 
96,569103262,0.20877178,-3.939141273,-105.9982834,0.643939435,-0.00355147,9.290385246,2.811700106,-9.301592827,-0.635834992,-0.923828125,-0.291503906,-1.473144531, 
97,569111595,0.220130458,-3.983697176,-106.0095215,0.624661803,0.059315495,9.307999611,2.55311203,-6.762927055,-0.728161573,-0.924804688,-0.293457031,-1.4765625, 
98,569119928,0.232410848,-4.013969898,-106.019722,0.594135582,0.132533565,9.313328743,2.662433386,-5.034426689,-0.777161479,-0.926757813,-0.293945313,-1.47265625, 
99,569128261,0.249004796,-4.014591217,-106.0261307,0.631889403,0.125487372,9.12606144,3.208093882,-1.489365458,-0.336135656,-0.927734375,-0.291015625,-1.473144531, 
100,569136594,0.261941582,-3.973764896,-106.0330429,0.660250247,0.150238067,9.074573517,2.769296169,3.498149157,-0.418306082,-0.925292969,-0.29296875,-1.476074219, 
101,569144927,0.279784948,-3.923684597,-106.0260773,0.716249824,0.241567656,9.254792213,3.481268883,4.602762699,1.399446487,-0.923339844,-0.291503906,-1.473632813, 
102,569153260,0.30460912,-3.890446424,-106.0033646,0.67488426,0.183117628,9.455465317,4.439139366,2.606363773,3.127844095,-0.922851563,-0.292480469,-1.474121094, 
103,569161593,0.331616849,-3.861292601,-105.9831161,0.771641254,0.132057935,9.601946831,4.688467503,2.101788759,3.004741669,-0.921386719,-0.292480469,-1.474609375, 
104,569169926,0.357642978,-3.843455076,-105.961647,0.777581275,0.117460601,9.616587639,4.570271492,0.759026647,2.986184597,-0.918945313,-0.29296875,-1.474121094, 
105,569178259,0.387629747,-3.848012447,-105.9443512,0.608785689,0.144900024,9.578536987,5.019160271,-1.943185687,2.666083097,-0.923828125,-0.295410156,-1.47265625, 
106,569186592,0.407493591,-3.890971422,-105.919693,0.622378051,0.229033098,9.706115723,3.85774684,-6.531143188,3.419589996,-0.921875,-0.295898438,-1.471191406, 
107,569194925,0.410601556,-4.018654346,-105.886467,0.667080283,0.157479942,9.781384468,1.930097103,-16.70325089,4.681732655,-0.921875,-0.295410156,-1.47265625, 
108,569203258,0.394008547,-4.206871033,-105.8598709,0.701348662,0.088786133,9.696465492,-0.488233238,-23.96072197,3.771582603,-0.925292969,-0.291992188,-1.474121094, 
109,569211591,0.358705252,-4.441604137,-105.8321304,0.779983044,0.046380647,9.510452271,-2.703084946,-29.55550575,4.09392643,-0.928222656,-0.295410156,-1.470214844, 
110,569219924,0.332650363,-4.643716335,-105.8060684,0.568603933,0.064607963,9.637200356,-1.604937792,-25.63120842,3.695175886,-0.933105469,-0.293457031,-1.46875, 
111,569228257,0.326895058,-4.794587612,-105.800766,0.529778421,0.000265076,9.615862846,0.644108593,-19.51188278,1.314407706,-0.937988281,-0.290527344,-1.470214844, 
112,569236590,0.353587866,-4.930015087,-105.8092041,0.793928921,0.060578912,9.512126923,4.39106226,-17.6546669,-0.481291592,-0.9375,-0.293457031,-1.467285156, 
113,569244923,0.388251364,-5.05243969,-105.8091507,0.812388837,0.063594237,9.216300011,5.431384563,-16.10164642,0.531200886,-0.942382813,-0.292480469,-1.46484375, 
114,569253256,0.433387339,-5.131419182,-105.8072205,0.791904688,0.048099302,9.125062943,6.711430073,-10.87224674,0.730044305,-0.938476563,-0.297363281,-1.462890625, 
115,569261589,0.480883747,-5.172047615,-105.8018341,0.752632737,0.084162816,9.114520073,7.028790474,-6.281841278,1.111952543,-0.94140625,-0.297851563,-1.462402344, 
116,569269922,0.528849423,-5.186517715,-105.7960663,0.761435211,0.069017351,9.071669579,7.092351437,-3.127024651,1.134352207,-0.939941406,-0.294433594,-1.46484375, 
117,569278255,0.571620584,-5.200122833,-105.7902679,0.797401488,0.059950054,9.07134819,6.479875565,-3.03615737,1.289919972,-0.939453125,-0.297363281,-1.461914063, 
118,569286588,0.607566595,-5.227745533,-105.7872391,0.782074273,-0.004444691,9.135416031,5.62112093,-4.707909584,0.827544749,-0.941894531,-0.295410156,-1.464355469, 
119,569294921,0.63411963,-5.24800539,-105.7875214,0.761179566,0.026649825,9.213786125,4.467737198,-3.840022564,0.568046927,-0.946777344,-0.294921875,-1.461914063, 
120,569303254,0.660192728,-5.239489079,-105.7901917,0.799289346,0.091530345,9.234513283,4.373464584,-0.379218787,0.097603045,-0.943359375,-0.296875,-1.459960938, 
121,569311587,0.685790896,-5.205062389,-105.794693,0.941634774,0.063606143,9.171256065,4.293995857,2.714032888,-0.15610595,-0.942871094,-0.299804688,-1.46484375, 
122,569319920,0.697948754,-5.196248055,-105.7929077,1.055061102,0.093931943,9.165529251,2.751852751,-0.337467551,0.628586113,-0.942382813,-0.299804688,-1.462402344, 
123,569328253,0.704530895,-5.23819828,-105.7830734,1.068023562,0.098584734,9.232200623,2.168411493,-6.430377007,1.670368195,-0.941894531,-0.297851563,-1.461914063, 
124,569336586,0.701749623,-5.293336868,-105.775795,0.998818099,0.049212616,9.284237862,1.020496607,-8.002360344,1.380402327,-0.941894531,-0.294433594,-1.46484375, 
125,569344919,0.699810386,-5.352625847,-105.7740402,1.029999375,0.08307796,9.499409676,1.071802139,-8.521510124,0.883486271,-0.942871094,-0.298828125,-1.460449219, 
126,569353252,0.696581542,-5.420499325,-105.7758636,0.975963235,0.084713951,9.538466454,0.866324842,-9.543597221,0.310982496,-0.943359375,-0.298339844,-1.458984375, 
127,569361585,0.699455619,-5.485588551,-105.7828827,1.00426054,0.107664071,9.570323944,1.549981594,-9.228707314,-0.160268277,-0.948242188,-0.297363281,-1.459472656, 
128,569369918,0.709208786,-5.530693054,-105.7930984,1.020756841,0.103757367,9.522661209,2.325785637,-6.824682713,-0.725830674,-0.945800781,-0.298828125,-1.45703125, 
129,569378251,0.714690387,-5.559609413,-105.8115158,0.972691417,0.07791502,9.409046173,1.731253505,-4.904997826,-1.570280671,-0.945800781,-0.299316406,-1.457519531, 
130,569386584,0.707400143,-5.597294331,-105.8254013,0.929002106,0.19393453,9.311630249,0.236662745,-5.940376759,-1.172312379,-0.948730469,-0.297363281,-1.461425781, 
131,569394917,0.694387496,-5.63131094,-105.8343048,0.859581232,0.228365123,9.286619186,-0.379385233,-5.502359867,-0.432150543,-0.951171875,-0.299804688,-1.45703125, 
132,569403250,0.679550231,-5.650155544,-105.8339081,0.836713493,0.255017698,9.383048058,-0.502154231,-3.657443762,0.502423167,-0.946289063,-0.297851563,-1.458007813, 
133,569411583,0.669306815,-5.641886711,-105.8441238,0.915907264,0.111040734,9.409164429,-0.063702606,-0.430472851,-0.644326091,-0.947753906,-0.297851563,-1.455078125, 
134,569419916,0.660732865,-5.602884769,-105.8640366,0.868469954,0.189877853,9.359274864,0.011974652,3.255248547,-2.002981663,-0.945800781,-0.298828125,-1.459472656, 
135,569428249,0.652698696,-5.530119419,-105.8948975,0.846094012,0.120880283,9.173138618,-0.037985917,7.280988693,-3.201524019,-0.948730469,-0.298828125,-1.460449219, 
136,569436582,0.632895827,-5.434116364,-105.9300919,0.7458148,0.155988365,8.979643822,-1.506514311,10.07546425,-3.904212475,-0.944335938,-0.295898438,-1.4609375, 
137,569444915,0.598259628,-5.331178665,-105.9633636,0.820219219,0.149083883,8.901864052,-3.260513306,10.89943409,-3.67897296,-0.941894531,-0.297363281,-1.463378906, 
138,569453248,0.550018549,-5.221869469,-105.9913101,0.845609188,0.147710457,9.026985168,-4.824237347,11.68561172,-3.040153742,-0.942382813,-0.300292969,-1.461914063, 
139,569461581,0.47476849,-5.126008987,-106.0096893,0.766397357,0.175795659,9.037513733,-7.944768429,10.07478523,-1.713029146,-0.939453125,-0.297363281,-1.461914063, 
140,569469914,0.378297478,-5.061288357,-106.0166779,0.788017631,0.136648819,8.952459335,-10.37691593,6.363690376,-0.464027464,-0.94140625,-0.294433594,-1.465332031, 
141,569478247,0.264066845,-5.006781578,-106.0138016,0.826223195,0.159061864,9.020313263,-12.39342403,5.134106159,0.894001126,-0.938476563,-0.292480469,-1.465820313, 
142,569486580,0.131635606,-4.940365791,-105.9982147,0.761021197,0.10824164,9.152395248,-14.4573679,6.579285622,2.267026663,-0.936523438,-0.29296875,-1.46875, 
143,569494913,-0.005877348,-4.853003979,-105.9865799,0.690032363,-0.018140195,9.152474403,-15.09956741,9.074983597,1.965111613,-0.937011719,-0.288574219,-1.466796875, 
144,569503246,-0.146940455,-4.778864861,-105.9611893,0.747027576,0.050919391,9.088194847,-15.39834881,7.495855331,3.475314856,-0.935058594,-0.288085938,-1.467773438, 
145,569511579,-0.288855493,-4.730426311,-105.9226761,0.761662066,-0.007686657,9.223903656,-15.36414909,4.384183884,5.21485424,-0.934082031,-0.285644531,-1.47265625, 
146,569519912,-0.42851153,-4.688428402,-105.8760147,0.828425407,-0.030720698,9.402490616,-15.02661991,3.607394218,6.041515827,-0.934082031,-0.284179688,-1.470214844, 
147,569528245,-0.554751039,-4.634522438,-105.8294449,0.81303668,-0.093049221,9.574645042,-13.42424393,5.011362076,6.057627201,-0.936035156,-0.282226563,-1.470703125, 
148,569536578,-0.66929245,-4.56208849,-105.7855759,0.742366672,-0.109950848,9.623387337,-12.05041122,7.238148689,5.769479752,-0.93359375,-0.279296875,-1.473144531, 
149,569544911,-0.768156171,-4.474216938,-105.7421341,0.779466689,-0.137995601,9.592216492,-10.17269611,9.066840172,5.905709267,-0.934570313,-0.278320313,-1.475585938, 
150,569553244,-0.856227934,-4.373472214,-105.7012482,0.815556347,-0.229269415,9.590770721,-8.915780067,10.62308407,5.493345737,-0.930664063,-0.274902344,-1.474121094, 
151,569561577,-0.934058905,-4.26505661,-105.6580811,0.889789581,-0.203987986,9.554113388,-7.681148052,11.51702118,5.796720982,-0.926757813,-0.272949219,-1.475585938, 
152,569569910,-1.008355141,-4.131776333,-105.6146011,0.91079849,-0.233268097,9.487271309,-7.259281158,14.50740719,5.903019905,-0.925292969,-0.274902344,-1.478515625, 
153,569578243,-1.087406754,-3.965290785,-105.579422,0.870436549,-0.289122671,9.432551384,-7.908295155,18.48599243,5.155725002,-0.925292969,-0.272949219,-1.480957031, 
154,569586576,-1.155684948,-3.774501324,-105.5467224,0.916653454,-0.265356094,9.507992744,-6.654965878,21.41769981,4.788237572,-0.922851563,-0.270019531,-1.48046875, 
155,569594909,-1.191854119,-3.529825926,-105.5058136,0.972705424,-0.277979195,9.903185844,-2.75788641,27.84511185,5.93373394,-0.922851563,-0.267578125,-1.481933594, 
156,569603242,-1.231148362,-3.233165503,-105.4562912,0.886519551,-0.277093023,9.961290359,-3.090334654,34.07009888,7.113399029,-0.914550781,-0.266113281,-1.486328125, 
157,569611575,-1.266948819,-2.937345982,-105.401886,0.91467762,-0.348884016,9.923542976,-2.675140381,33.93989182,7.723570347,-0.913574219,-0.266601563,-1.491699219, 
158,569619908,-1.298367381,-2.668656111,-105.3480072,0.79074049,-0.279333234,9.798220634,-2.180669546,30.6936245,7.606395721,-0.908203125,-0.264160156,-1.490234375, 
159,569628241,-1.327778816,-2.440741777,-105.297905,0.476003677,-0.278135121,9.583626747,-1.990176082,25.79735565,7.059761524,-0.907226563,-0.267089844,-1.494140625, 
160,569636574,-1.349471688,-2.249927759,-105.2543182,0.343320966,-0.19577311,9.419617653,-1.116089344,21.3727932,6.191794395,-0.90234375,-0.264648438,-1.491699219, 
161,569644907,-1.353847861,-2.069904566,-105.2181931,0.337125957,-0.197748542,9.418589592,0.909408092,20.08812523,5.268978119,-0.902832031,-0.267089844,-1.494140625, 
162,569653240,-1.339072466,-1.895353556,-105.2000122,0.281338096,-0.162215069,9.329257965,3.122670889,19.49283791,3.100258589,-0.897949219,-0.265625,-1.497558594, 
163,569661573,-1.291893363,-1.759174705,-105.2023392,0.279892862,-0.109667286,9.359519958,6.928870678,14.93280888,0.680275857,-0.895996094,-0.262695313,-1.498535156, 
164,569669906,-1.220628619,-1.674239278,-105.2154694,0.220596254,-0.108408876,9.30698204,9.779080391,8.827971458,-0.921664238,-0.895019531,-0.264648438,-1.494628906, 
165,569678239,-1.125144601,-1.62265861,-105.2397842,0.110344723,-0.115257651,9.201259613,12.64977169,4.837044239,-2.201556683,-0.895019531,-0.269042969,-1.498046875, 
166,569686572,-1.027512193,-1.568660021,-105.2630386,0.020553121,-0.069660291,9.201791763,12.91317749,5.135361195,-2.237788439,-0.893066406,-0.268554688,-1.496582031, 
167,569694905,-0.942945182,-1.48150599,-105.2843323,0.052947111,-0.035992954,9.120111465,11.35452271,9.088969231,-1.78664422,-0.892089844,-0.26953125,-1.499511719, 
168,569703238,-0.869912088,-1.361280322,-105.2954102,0.140663132,-0.079025336,9.232254028,10.0061636,13.05016041,-0.670478404,-0.889648438,-0.270507813,-1.500976563, 
169,569711571,-0.822991073,-1.23403275,-105.2888031,0.296566904,-0.091863446,9.402609825,6.923234463,13.84612274,1.611737728,-0.884765625,-0.270507813,-1.5, 
170,569719904,-0.802953124,-1.097165704,-105.2742004,0.283140779,-0.162801117,9.509766579,3.713834763,15.00023746,2.41398859,-0.885253906,-0.272949219,-1.499511719, 
171,569728237,-0.795606315,-0.964415908,-105.2588272,0.238495469,-0.151362404,9.548788071,2.18890357,14.49314117,2.669298887,-0.886230469,-0.272949219,-1.499511719, 
172,569736570,-0.789729238,-0.852635205,-105.2381516,0.110838741,-0.124441549,9.522885323,2.019003868,11.98143196,3.096057177,-0.8828125,-0.275390625,-1.5, 
173,569744903,-0.79025352,-0.745098531,-105.2143784,0.050439823,-0.090328097,9.547262192,1.249974847,11.45430279,3.636325359,-0.884765625,-0.271972656,-1.501464844, 
174,569753236,-0.793570459,-0.65692842,-105.188858,0.066609673,-0.088990659,9.577501297,0.912660897,9.139621735,3.640269756,-0.881835938,-0.272949219,-1.504882813, 
175,569761569,-0.788620353,-0.610506713,-105.173645,0.123424821,-0.187091738,9.486002922,1.886501074,4.134943485,2.512794733,-0.881347656,-0.272460938,-1.505859375, 
176,569769902,-0.772448301,-0.601638258,-105.1670914,0.030562488,-0.176248834,9.406469345,3.223180294,-0.343512535,1.231237888,-0.876464844,-0.270996094,-1.503417969, 
177,569778235,-0.75630182,-0.602207124,-105.1671295,0.037415188,-0.119452715,9.366368294,3.210475206,-1.477941275,0.598412514,-0.875976563,-0.271484375,-1.504394531, 
178,569786568,-0.743814468,-0.605589032,-105.1605377,0.080278404,-0.11994496,9.299545288,2.780540466,-1.813743949,1.216150999,-0.881347656,-0.270996094,-1.502441406, 
179,569794901,-0.719110608,-0.611104906,-105.1533966,0.023216629,-0.083954304,9.382692337,4.246968746,-2.082655191,1.450098753,-0.87890625,-0.273925781,-1.504882813, 
180,569803234,-0.669666827,-0.622500777,-105.1463852,0.020897029,-0.052804884,9.373504639,7.216274261,-2.77500844,1.254790306,-0.881835938,-0.274414063,-1.50390625, 
181,569811567,-0.601090252,-0.634828925,-105.1552429,0.067291081,-0.067736007,9.361397743,9.489882469,-2.87827158,-0.474298805,-0.879394531,-0.274414063,-1.504882813, 
182,569819900,-0.527410805,-0.678638577,-105.1574936,0.245353907,-0.059560135,9.458701134,10.11292267,-6.651812077,0.106183812,-0.8828125,-0.275878906,-1.50390625, 
183,569828233,-0.47250098,-0.76310128,-105.1332397,0.29880926,-0.212469965,9.55257225,7.898470879,-11.57038593,3.427735567,-0.87890625,-0.276855469,-1.502929688, 
184,569836566,-0.441664815,-0.853490591,-105.0838242,0.384493202,-0.103530459,9.705274582,5.058466434,-12.29088974,6.270326614,-0.884765625,-0.279296875,-1.502929688, 
185,569844899,-0.394478351,-1.00893116,-105.0022125,0.467211723,0.040743332,9.858100891,7.094492912,-20.13323402,10.27296543,-0.884765625,-0.276367188,-1.5, 
186,569853232,-0.304975688,-1.279522538,-104.897522,0.36854291,-0.023405809,9.857810974,12.26622391,-33.94451523,12.79129219,-0.884277344,-0.275878906,-1.499511719, 
187,569861565,-0.199577942,-1.625733495,-104.7956161,0.213514552,-0.100611977,9.737634659,14.23343468,-43.00769043,12.64332676,-0.891113281,-0.27734375,-1.497070313, 
188,569869898,-0.086657405,-1.977958322,-104.6957321,0.107360847,-0.06180447,9.608551025,15.20201397,-43.694664,12.30493641,-0.900878906,-0.28125,-1.491210938, 
189,569878231,0.029996283,-2.281452894,-104.5966721,0.195589393,0.011936957,9.52469635,15.71754742,-37.83325958,12.45815563,-0.901367188,-0.280273438,-1.487304688, 
190,569886564,0.163027659,-2.525936842,-104.4839172,0.139308631,0.110934287,9.658751488,17.80538559,-30.71332169,13.99639034,-0.912109375,-0.282714844,-1.487304688, 
191,569894897,-0.051935144,-2.618006229,-104.2006378,-0.439904839,-1.441823125,10.58820057,-22.99385834,-12.42312813,34.56225204,-0.911132813,-0.283691406,-1.485351563, 
192,569903230,-0.178971171,-2.544541836,-104.096756,0.281816721,1.34826231,7.877536297,-13.40963459,7.39345026,12.90166664,-0.916015625,-0.2734375,-1.485839844, 
193,569911563,-0.164005712,-2.480221987,-104.0050278,0.381904721,-0.094918944,9.509955406,3.556665182,6.276743889,11.58885574,-0.913574219,-0.274414063,-1.488769531, 
194,569919896,-0.166357055,-2.464229822,-103.929451,0.306968242,-0.096699521,8.593509674,1.382477283,0.4957892,9.497094154,-0.910644531,-0.270507813,-1.483398438, 
195,569928229,-0.167914152,-2.416783571,-103.8695526,0.140125185,0.13101615,8.903683662,1.38900888,4.264232159,7.62661314,-0.911621094,-0.270019531,-1.48828125, 
196,569936562,-0.185891464,-2.330259323,-103.8095245,0.113793634,0.17286092,8.821314812,-0.584862649,8.964035034,7.659144402,-0.90625,-0.271972656,-1.489746094, 
197,569944895,-0.215059906,-2.287454128,-103.7313766,0.333640099,0.099007145,8.755628586,-1.84613359,3.694751501,9.975772858,-0.908691406,-0.272949219,-1.485351563, 
198,569953228,-0.246014982,-2.300533056,-103.6355972,0.626403391,-0.003598517,9.077366829,-1.980992436,-3.012452126,11.90762424,-0.911621094,-0.269042969,-1.492675781, 
199,569961561,-0.289195418,-2.349192619,-103.5400009,0.58256036,-0.061020933,9.298745155,-3.440273762,-7.302388191,12.01841831,-0.912109375,-0.266601563,-1.488769531, 
200,569969894,-0.337584704,-2.423632145,-103.4603271,0.617461383,-0.149437681,9.4036026,-4.134945393,-10.38243866,9.933049202,-0.910644531,-0.265136719,-1.487304688, 
201,569978227,-0.388092786,-2.510431767,-103.3916092,0.604588032,-0.117066942,9.578771591,-4.436821938,-11.87650299,8.602683067,-0.916015625,-0.264160156,-1.487792969, 
202,569986560,-0.431161255,-2.603711128,-103.3255692,0.564891577,-0.066760913,9.721808434,-3.540630341,-12.64674854,8.266751289,-0.915039063,-0.263671875,-1.486816406, 
203,569994893,-0.457408965,-2.694915533,-103.2579041,0.456407487,-0.050972328,9.83803463,-1.504887938,-12.41537571,8.458090782,-0.916992188,-0.265625,-1.48828125, 
204,570003226,-0.473072141,-2.761776447,-103.1909103,0.375987351,-0.034825899,9.731326103,-0.222946316,-9.486207008,8.395105362,-0.920898438,-0.262695313,-1.486328125, 
205,570011559,-0.485849082,-2.799032688,-103.1329803,0.48845616,-0.097289167,9.453708649,0.073653743,-5.936355591,7.335392952,-0.920898438,-0.262207031,-1.485351563, 
206,570019892,-0.499255419,-2.826078415,-103.0832291,0.673966944,-0.101485074,9.285300255,-0.041981738,-4.693322659,6.365100384,-0.920898438,-0.260742188,-1.486328125, 
207,570028225,-0.508163929,-2.859889507,-103.034462,0.642762482,-0.123158559,9.148921013,0.490064323,-5.517305851,6.237949371,-0.920410156,-0.260742188,-1.485839844, 
208,570036558,-0.408978045,-2.859767675,-103.0034943,0.574089825,-0.031602524,10.05526733,13.36301517,-1.411754608,4.140631676,-0.920898438,-0.260742188,-1.487304688, 
209,570044891,-0.384744197,-2.791472197,-102.966217,0.398431361,-0.168802291,9.352890015,4.398438931,6.757459164,4.955984116,-0.919921875,-0.260742188,-1.484863281, 
210,570053224,-0.342287719,-2.702101946,-102.9405441,0.502550304,-0.130495489,9.475895882,6.516864777,9.30799675,3.575017929,-0.920410156,-0.263671875,-1.485351563, 
211,570061557,-0.332433611,-2.596668482,-102.9184036,0.675192893,-0.111416534,9.395325661,2.580929279,11.2280407,3.296231985,-0.922363281,-0.260742188,-1.488769531, 
212,570069890,-0.326090187,-2.520176172,-102.8948441,0.498193622,-0.165048301,9.095533371,2.161136866,7.765864372,3.309371948,-0.915039063,-0.263671875,-1.489257813, 
213,570078223,-0.301571637,-2.496440411,-102.8677216,0.462475538,0.007156332,9.128139496,4.355354786,1.424189925,3.69450736,-0.916015625,-0.262207031,-1.48828125, 
214,570086556,-0.264180005,-2.496419668,-102.8345108,0.42796725,0.009368632,9.333812714,5.934473038,-1.414674401,4.412526131,-0.919921875,-0.263183594,-1.489257813, 
215,570094889,-0.228783458,-2.500126839,-102.8025055,0.350999594,-0.051538862,9.375592232,5.68472147,-1.868750691,4.265820503,-0.915527344,-0.259765625,-1.485351563, 
216,570103222,-0.215570778,-2.499091625,-102.7773972,0.421061814,-0.03948183,9.359729767,2.991524935,-1.283631921,3.440312147,-0.917480469,-0.266113281,-1.484375, 
217,570111555,-0.229367152,-2.48749733,-102.7626266,0.379541457,-0.026489917,9.179364204,-0.302657813,-0.024154225,2.35150218,-0.916015625,-0.262207031,-1.486328125, 
218,570119888,-0.272538811,-2.447571993,-102.7543488,0.263741374,0.017962223,9.009998322,-3.863805294,3.389801025,1.441453934,-0.919433594,-0.260742188,-1.487304688, 
219,570128221,-0.34234491,-2.376289129,-102.7431946,0.215712622,0.050263058,8.992498398,-7.043889523,7.139469147,1.950434446,-0.916503906,-0.263671875,-1.48828125, 
220,570136554,-0.443176389,-2.272496462,-102.7230301,0.22880283,-0.033704363,9.172393799,-10.7286272,11.041646,2.934098721,-0.91796875,-0.259277344,-1.488769531, 
221,570144887,-0.561402619,-2.131885529,-102.7001114,0.328756928,-0.079099029,9.325190544,-12.81324291,15.44094563,3.32673955,-0.912109375,-0.257324219,-1.490234375, 
222,570153220,-0.678554952,-1.943421721,-102.6755981,0.380137742,-0.224333137,9.728228569,-12.6801405,21.18590546,3.612530947,-0.911621094,-0.258300781,-1.492675781, 
223,570161553,-0.779989123,-1.701921105,-102.6590118,0.44917506,-0.365632176,10.19588375,-10.83494568,27.54451942,2.924891472,-0.908203125,-0.255371094,-1.494628906, 
224,570169886,-0.863479257,-1.392687321,-102.6481476,0.425839692,-0.378308952,10.2034359,-8.710720062,35.68908691,2.26526165,-0.905273438,-0.25390625,-1.496582031, 
225,570178219,-0.946495712,-0.986697555,-102.6552124,0.166179508,-0.517276347,10.08001995,-8.709395409,47.32078934,0.356102616,-0.901367188,-0.252929688,-1.502929688, 
226,570186552,-1.044127941,-0.507569253,-102.6806564,0.137431026,-0.339911938,10.0264349,-10.48244953,56.14445114,-1.625458121,-0.890136719,-0.249023438,-1.506347656, 
227,570194885,-1.117902517,0.004688338,-102.7052994,0.297842801,-0.22290355,9.973566055,-7.595849037,60.1102066,-1.370289207,-0.886230469,-0.24609375,-1.506347656, 
228,570203218,-1.159692168,0.512921095,-102.7244797,0.252951324,-0.162638724,9.722031593,-3.73103261,59.62604141,-0.659466207,-0.877929688,-0.249511719,-1.510742188, 
229,570211551,-1.167925,0.916457057,-102.7443695,0.095855683,-0.148004323,9.28608799,0.310918987,47.05355835,-0.817710519,-0.869140625,-0.250488281,-1.514160156, 
230,570219884,-1.140120625,1.201322198,-102.7558594,0.058452472,0.004713404,9.004207611,4.635886192,32.80849457,-0.260676295,-0.86328125,-0.248046875,-1.518066406, 
231,570228217,-1.089285135,1.36676991,-102.7590866,-0.140772402,0.065455481,8.816498756,7.377605915,18.44969559,0.579919219,-0.860839844,-0.247070313,-1.518554688, 
232,570236550,-1.033074856,1.478277445,-102.7546082,-0.350405663,-0.048219778,8.780130386,8.006793022,11.9718771,1.215792537,-0.858398438,-0.252929688,-1.521484375, 
233,570244883,-0.984125793,1.635997176,-102.752037,-0.565084696,-0.102994986,8.850705147,7.131913662,17.51008606,1.236770868,-0.856445313,-0.252441406,-1.520507813, 
234,570253216,-0.942252338,1.875300765,-102.7528915,-0.483728021,-0.01351547,9.143190384,6.301119328,27.31679535,0.811984718,-0.853027344,-0.252441406,-1.522460938, 
235,570261549,-0.907089174,2.181928873,-102.7558823,-0.398864955,-0.073371448,9.113853455,5.497884274,35.38883591,0.827737808,-0.849121094,-0.25,-1.524902344, 
236,570269882,-0.873087287,2.543772936,-102.7625427,-0.390586525,-0.044024799,9.299674034,5.387641907,42.03242111,0.306692481,-0.845703125,-0.252441406,-1.525878906, 
237,570278215,-0.856651545,2.937126637,-102.7721786,-0.493322074,-0.099610627,9.250101089,3.289373159,45.80657578,0.166864246,-0.83984375,-0.253417969,-1.529296875, 
238,570286548,-0.84327352,3.360634804,-102.7837982,-0.651214242,-0.155629456,9.442826271,2.955901861,49.43996811,-0.2095249,-0.832519531,-0.256347656,-1.529785156, 
239,570294881,-0.837929904,3.805977345,-102.7997818,-0.660514295,-0.113293752,9.697857857,2.020366192,52.05595016,-0.521276593,-0.825195313,-0.252929688,-1.535644531, 
240,570303214,-0.831991196,4.268184185,-102.815033,-0.612480342,-0.190969571,9.67387104,2.115523577,54.08970642,-0.587950647,-0.819335938,-0.254882813,-1.533691406, 
241,570311547,-0.818423033,4.751749039,-102.8326492,-0.653087735,-0.181384608,9.667559624,3.049678326,56.64387894,-0.652959943,-0.811035156,-0.256347656,-1.5390625, 
242,570319880,-0.792928994,5.218614101,-102.8500824,-0.847257078,-0.127375796,9.478990555,4.516121387,54.65253448,-0.865584135,-0.805664063,-0.25390625,-1.541503906, 
243,570328213,-0.743650377,5.653286934,-102.8703079,-1.011467457,-0.088002421,9.315554619,7.394385815,50.78003311,-1.089311957,-0.796875,-0.256347656,-1.54296875, 
244,570336546,-0.677813888,6.103713036,-102.8853302,-1.134188294,-0.151664048,9.407165527,9.359555244,52.67335892,-0.69483912,-0.791992188,-0.2578125,-1.542480469, 
245,570344879,-0.614454091,6.562533855,-102.8949661,-1.238566637,-0.155149087,9.40105629,8.979105949,53.66043091,0.109974995,-0.78125,-0.259765625,-1.549316406, 
246,570353212,-0.553438306,7.013656139,-102.9098358,-1.257560372,-0.213596284,9.273578644,8.807641983,52.75414276,-0.789535046,-0.776855469,-0.257324219,-1.550292969, 
247,570361545,-0.501868427,7.490075111,-102.9405594,-1.283256292,-0.320513308,9.239361763,7.896146774,55.79343414,-2.486009121,-0.770507813,-0.258789063,-1.553710938, 
248,570369878,-0.474751234,8.019640923,-102.9847107,-1.48103261,-0.288776964,9.26626873,5.243110657,62.1946106,-4.278411388,-0.758300781,-0.263183594,-1.5546875, 
249,570378211,-0.485484302,8.612787247,-103.0430603,-1.597603083,-0.231923521,9.330760002,0.963317096,69.82514954,-5.677855015,-0.751953125,-0.261230469,-1.557128906, 
250,570386544,-0.542302907,9.313352585,-103.1063309,-1.571549177,-0.347263694,9.364697456,-4.362156391,82.73654175,-6.315228462,-0.740722656,-0.260253906,-1.561035156, 
251,570394877,-0.652578175,10.15399361,-103.1709366,-1.537649155,-0.40319109,9.57530117,-10.65108204,99.5467453,-6.159227371,-0.73046875,-0.258789063,-1.562988281, 
252,570403210,-0.798492372,11.02011204,-103.2155533,-1.633601785,-0.127210245,9.574739456,-15.25378132,102.5978165,-3.514998198,-0.71484375,-0.258789063,-1.566894531, 
253,570411543,-0.93373543,11.70238209,-103.2572479,-1.60570085,0.071352564,9.104682922,-13.97245407,80.53190613,-3.236927986,-0.702148438,-0.255859375,-1.575195313, 
254,570419876,-0.996772647,12.15905952,-103.2866135,-1.614578724,0.074616626,9.098154068,-5.561913967,53.4560051,-2.095454454,-0.694824219,-0.25390625,-1.575195313, 
255,570428209,-1.013760805,12.52114677,-103.2916031,-1.846786261,-0.036059666,9.171138763,-0.638640642,42.04821777,0.607352734,-0.686523438,-0.250976563,-1.578613281, 
256,570436542,-1.022351861,12.88062096,-103.2855759,-2.160022497,-0.091647536,9.211384773,0.083156742,41.72138977,1.901232243,-0.680175781,-0.252929688,-1.580078125, 
257,570444875,-1.035321474,13.25397682,-103.2892838,-2.426354885,-0.206039757,9.014045715,-0.183987349,43.39720535,0.800125957,-0.674316406,-0.255371094,-1.580566406, 
258,570453208,-1.060621023,13.68828106,-103.3108139,-2.491927862,-0.147307158,9.044911385,-1.160199285,50.75811386,-1.128719449,-0.671386719,-0.254394531,-1.581542969, 
259,570461541,-1.112868071,14.20349407,-103.3329926,-2.564413071,-0.147311687,8.968310356,-4.357367516,60.45792007,-0.980067909,-0.661132813,-0.25390625,-1.583496094, 
260,570469874,-1.186344624,14.7649498,-103.3671646,-2.668657541,-0.23437719,8.813309669,-6.518503189,66.04600525,-2.186119556,-0.654296875,-0.251464844,-1.585449219, 
261,570478207,-1.271575689,15.30032063,-103.4292068,-2.685611248,-0.239366367,8.819011688,-7.025766373,62.97636032,-5.386782646,-0.645507813,-0.253417969,-1.5859375, 
262,570486540,-1.347332239,15.79653358,-103.5148392,-2.670149803,-0.239492729,8.825471878,-5.062297344,58.35995102,-8.108914375,-0.634277344,-0.252441406,-1.588378906, 
263,570494873,-1.417048216,16.30197716,-103.6112976,-2.775634527,-0.259848654,8.932234764,-3.894464254,59.49745941,-9.226852417,-0.626464844,-0.251953125,-1.590820313, 
264,570503206,-1.49666059,16.86657524,-103.7230377,-2.903330803,-0.306536525,8.889687538,-4.453257561,66.66147614,-10.6948061,-0.619140625,-0.248535156,-1.593261719, 
265,570511539,-1.588032961,17.49557686,-103.849144,-2.850142479,-0.346707791,8.918481827,-5.222257137,74.43490601,-11.99487495,-0.60546875,-0.250488281,-1.597167969, 
266,570519872,-1.685736537,18.17180824,-103.9813156,-2.854694366,-0.308386654,9.033848763,-5.593950748,80.15063477,-12.34254646,-0.597167969,-0.247070313,-1.595214844, 
267,570528205,-1.782566309,18.85359764,-104.104332,-2.867588282,-0.278911501,9.068956375,-5.662008762,80.79446411,-11.08757019,-0.582519531,-0.247070313,-1.597167969, 
268,570536538,-1.863567829,19.47237206,-104.201767,-3.026627302,-0.196350619,9.070203781,-4.609354496,73.17060089,-8.24623394,-0.569824219,-0.247070313,-1.598632813, 
269,570544871,-1.915403247,19.97489548,-104.2736206,-3.051669359,-0.171298504,8.821328163,-2.037644148,59.13002014,-5.698287964,-0.562011719,-0.2421875,-1.6015625, 
270,570553204,-1.921036243,20.33631325,-104.3147354,-3.213061333,-0.125190899,8.763845444,2.298573732,42.10477448,-2.747809649,-0.553710938,-0.244628906,-1.601074219, 
271,570561537,-1.902606368,20.61493111,-104.3364029,-3.389442682,-0.15673326,8.820302963,4.391922951,32.08982468,-0.889723957,-0.550292969,-0.25,-1.600097656, 
272,570569870,-1.876507401,20.87714386,-104.3503876,-3.52739501,-0.249402255,8.801034927,5.00118351,30.10341072,-0.102674738,-0.544921875,-0.246582031,-1.601074219, 
273,570578203,-1.852852941,21.15834236,-104.3699188,-3.639265537,-0.304371357,8.73306942,4.951479435,32.38932037,-0.660053849,-0.543457031,-0.248535156,-1.602050781, 
274,570586536,-1.859847307,21.51107979,-104.4085846,-3.738283873,-0.38930431,8.877717972,2.121976137,41.04990768,-2.517165661,-0.536621094,-0.250488281,-1.601074219, 
275,570594869,-1.907408714,21.91900253,-104.4493637,-3.840080738,-0.329465419,8.978675842,-2.62569499,47.66622925,-2.50459075,-0.529785156,-0.25,-1.6015625, 
276,570603202,-1.976526976,22.34773445,-104.4814453,-3.775166035,-0.348025352,8.984887123,-5.571019173,50.1423378,-1.391253114,-0.521484375,-0.244628906,-1.602539063, 
277,570611535,-2.056067944,22.7718792,-104.4999924,-3.739933968,-0.330995768,8.887579918,-7.419730186,49.5297966,0.166262373,-0.513671875,-0.245605469,-1.602539063, 
278,570619868,-2.128780127,23.22168922,-104.503685,-3.78952527,-0.391070902,8.612961769,-7.279225349,52.55965424,1.992472291,-0.508789063,-0.245117188,-1.604003906, 
279,570628201,-2.191982031,23.76665878,-104.4941483,-4.017773628,-0.404177576,8.620286942,-6.76866293,63.90281296,3.941571236,-0.497558594,-0.244140625,-1.604492188, 
280,570636534,-2.269895077,24.3941021,-104.4684525,-4.100087166,-0.418732762,8.638866425,-9.333642006,73.73199463,6.175583363,-0.491699219,-0.245117188,-1.609863281, 
281,570644867,-2.361685276,25.03305817,-104.4347992,-4.155833244,-0.313496441,8.518059731,-11.43102455,75.05558014,7.189888477,-0.481933594,-0.23828125,-1.604492188, 
282,570653200,-2.444098473,25.53151321,-104.4117813,-4.149515152,-0.187952906,8.214430809,-9.796297073,58.26171875,5.435472488,-0.471191406,-0.238769531,-1.604003906, 
283,570661533,-2.48503089,25.87638283,-104.3846893,-4.017131805,-0.162461475,8.268584251,-5.050570488,39.81068802,5.13313818,-0.464355469,-0.23828125,-1.604980469, 
284,570669866,-2.498453379,26.14996338,-104.348938,-4.160694122,-0.294509202,8.17642498,-2.218117714,31.23506355,5.708124638,-0.459960938,-0.237792969,-1.606445313, 
285,570678199,-2.49973464,26.39414787,-104.3152695,-4.325630665,-0.363113493,8.228085518,-0.670324981,27.70402908,5.325138569,-0.454589844,-0.236328125,-1.605957031, 
286,570686532,-2.49742794,26.6220665,-104.2845688,-4.382949352,-0.326054186,8.362330437,-0.092621118,25.78510666,4.915181637,-0.451660156,-0.236328125,-1.608886719, 
287,570694865,-2.48937273,26.81518364,-104.2488022,-4.414188862,-0.261388779,8.423734665,0.306333572,21.57399368,5.269401073,-0.452148438,-0.239746094,-1.606933594, 
288,570703198,-2.470905781,26.94452858,-104.204689,-4.378223896,-0.281502217,8.427607536,1.096532822,13.90546989,5.818133831,-0.444824219,-0.234375,-1.606445313, 
289,570711531,-2.442013264,26.99227905,-104.1512985,-4.374361515,-0.281311423,8.450335503,1.834760904,4.069295883,6.376011848,-0.445800781,-0.236816406,-1.60546875, 
290,570719864,-2.399433136,26.94896507,-104.0938492,-4.492790222,-0.327949643,8.236451149,3.256888628,-6.850143433,6.349551678,-0.447265625,-0.239257813,-1.605957031, 
291,570728197,-2.356127024,26.84838867,-104.0413589,-4.578667641,-0.310277492,8.204646111,3.61789608,-13.70192814,5.542294502,-0.443847656,-0.236328125,-1.606933594, 
292,570736530,-2.327252626,26.69382286,-103.9955292,-4.486768246,-0.263316184,8.162643433,2.261583805,-20.13093948,4.578495026,-0.44921875,-0.23828125,-1.608398438, 
293,570744863,-2.291317225,26.48834229,-103.9491196,-4.333841324,-0.243928224,8.198339462,3.089629173,-26.25032997,4.412425995,-0.450683594,-0.236328125,-1.606933594, 
294,570753196,-2.256169319,26.28918076,-103.9085388,-4.40828371,-0.363595873,8.233118057,3.326330662,-25.45183372,3.84291935,-0.456542969,-0.239257813,-1.604980469, 
295,570761529,-2.234296083,26.1027832,-103.8758698,-4.379161835,-0.318648815,8.374188423,2.165415525,-23.90290642,3.066601753,-0.4609375,-0.238769531,-1.603515625, 
296,570769862,-2.202875376,25.87852478,-103.8384552,-4.281608582,-0.225449353,8.432681084,3.077949762,-28.44345093,3.421641827,-0.462402344,-0.239257813,-1.604980469, 
297,570778195,-2.149226189,25.61558151,-103.7906647,-4.263246536,-0.256054282,8.484301567,5.217817307,-33.13950348,4.396265507,-0.467773438,-0.241210938,-1.609863281, 
298,570786528,-2.081522703,25.33279991,-103.7289047,-4.280521393,-0.275286138,8.474727631,6.209512711,-35.55612564,5.865564823,-0.471679688,-0.240234375,-1.605957031, 
299,570794861,-2.009984255,25.00024223,-103.6568375,-4.415565014,-0.169799671,8.524043083,6.179303169,-41.57465744,6.82596159,-0.48046875,-0.241699219,-1.604492188, 
300,570803194,-1.921272278,24.57239151,-103.5807724,-4.269620419,-0.121552899,8.581277847,8.092977524,-52.99516296,6.951451778,-0.482421875,-0.239746094,-1.604980469, 
301,570811527,-1.819082618,24.03882027,-103.4980774,-3.998744249,-0.237297148,8.632889748,9.448757172,-65.70436096,7.379221439,-0.490722656,-0.244140625,-1.604003906, 
302,570819860,-1.725811243,23.41788864,-103.4255371,-3.868816137,-0.261535197,8.67905426,8.963504791,-76.12160492,6.092570305,-0.5,-0.243164063,-1.604492188, 
303,570828193,-1.632960796,22.72667313,-103.3591614,-3.753540277,-0.280295491,8.717975616,9.291815758,-84.5414505,5.320891857,-0.513183594,-0.244628906,-1.604003906, 
304,570836526,-1.526552916,21.96480179,-103.2883377,-3.748199701,-0.200611308,8.831388474,10.8109684,-93.00531006,5.770253181,-0.525390625,-0.245117188,-1.60546875, 
305,570844859,-1.402998805,21.10262871,-103.2152405,-3.638147116,-0.17600444,8.659932137,12.87720966,-105.0515137,5.9410882,-0.53515625,-0.248046875,-1.6015625, 
306,570853192,-1.253158808,20.11055565,-103.1355743,-3.483089447,-0.062345356,8.675772667,15.89103603,-120.6235428,6.616461277,-0.554199219,-0.249511719,-1.59765625, 
307,570861525,-1.084195852,19.00439453,-103.060791,-3.265329123,-0.069913313,8.500957489,18.54069138,-134.3017578,6.178010941,-0.569824219,-0.251953125,-1.599121094, 
308,570869858,-0.894476414,17.8770237,-102.9971237,-3.043025732,-0.171628594,8.591506004,21.62414742,-136.7899323,5.341849327,-0.588867188,-0.255859375,-1.597167969, 
309,570878191,-0.713166058,16.85357094,-102.9300003,-2.925044775,-0.227804199,8.891914368,20.62346268,-124.3261795,6.3939147,-0.609863281,-0.2578125,-1.591796875, 
310,570886524,-0.549241126,15.97213078,-102.8533554,-2.955262184,-0.164853483,9.203625679,18.34581184,-107.2641754,8.087381363,-0.625976563,-0.259277344,-1.590820313, 
311,570894857,-0.399902105,15.1754837,-102.7906342,-2.743051052,-0.10857521,9.197273254,17.17058563,-97.0714798,6.889199734,-0.639160156,-0.259277344,-1.5859375, 
312,570903190,-0.264395297,14.35709,-102.7469864,-2.464158297,-0.085786879,9.114973068,16.20080376,-99.63415527,4.92421484,-0.653808594,-0.260742188,-1.581054688, 
313,570911523,-0.139676198,13.47865963,-102.7191772,-2.319372177,-0.023344284,9.251127243,15.43420792,-106.8400421,3.297597647,-0.662597656,-0.264648438,-1.580566406, 
314,570919856,-0.024833566,12.61111927,-102.6956406,-2.252855778,-0.087974742,9.308529854,14.41746235,-105.5091095,3.03087306,-0.680664063,-0.264648438,-1.577636719, 
315,570928189,0.075639062,11.77888393,-102.6712799,-2.15129447,-0.165948272,9.31483078,12.70919418,-101.2845993,3.33255744,-0.690429688,-0.267578125,-1.574707031, 
316,570936522,0.164919361,10.9718914,-102.6533661,-1.910169363,-0.242793798,9.391841888,11.56379986,-98.2339859,2.742130041,-0.70703125,-0.270996094,-1.568847656, 
317,570944855,0.237084031,10.16694546,-102.6459198,-1.770705223,-0.091124676,9.494492531,9.766100883,-98.00750732,1.646574259,-0.717773438,-0.271972656,-1.565429688, 
318,570953188,0.306273043,9.357388496,-102.6348038,-1.498246431,0.134037316,9.260512352,9.349981308,-98.53938293,2.205622196,-0.731445313,-0.269042969,-1.561523438, 
319,570961521,0.374913186,8.521373749,-102.6232147,-1.492006421,0.230262622,9.016145706,9.292199135,-101.7286224,2.401497602,-0.745605469,-0.271484375,-1.556152344, 
320,570969854,0.462349534,7.605115891,-102.6144714,-1.272071838,0.175957993,9.195513725,11.61927032,-111.3407211,2.273941517,-0.758300781,-0.269042969,-1.551757813, 
321,570978187,0.559121668,6.662621498,-102.5974197,-1.228541374,0.141026482,9.212018013,12.59681702,-114.4916992,3.731909513,-0.7734375,-0.275878906,-1.546386719, 
322,570986520,0.650549948,5.734233856,-102.5698242,-1.284040689,0.14998284,9.353811264,11.88793182,-112.7664413,4.897036076,-0.787597656,-0.275390625,-1.540527344, 
323,570994853,0.723149776,4.880432606,-102.5477371,-1.100423813,0.148321882,9.333880424,9.714701653,-103.8324738,4.539602757,-0.802246094,-0.275878906,-1.536132813, 
324,571003186,0.786512315,4.096103191,-102.5317993,-0.867607176,0.119602308,9.275182724,8.727493286,-95.48574829,3.577710152,-0.812988281,-0.275390625,-1.531738281, 
325,571011519,0.854600251,3.33908391,-102.5101929,-0.49260062,0.161830693,9.453882217,9.258271217,-92.20978546,4.558868885,-0.826171875,-0.275390625,-1.526367188, 
326,571019852,0.923316419,2.571140051,-102.4663849,-0.389297992,0.187682673,9.304702759,9.248719215,-93.46067047,7.109298706,-0.8359375,-0.279296875,-1.520996094, 
327,571028185,1.000707746,1.755431294,-102.4145355,-0.376171619,0.171001256,9.312366486,10.31526375,-99.1811676,8.515591621,-0.850097656,-0.28125,-1.515136719, 
328,571036518,1.082252145,0.91773808,-102.3583755,-0.167612135,0.125640064,9.413771629,10.9021492,-101.7837524,8.992589951,-0.863769531,-0.278808594,-1.508789063, 
329,571044851,1.160169721,0.081699878,-102.3134232,-0.167147875,0.090020105,9.445331573,10.57104111,-101.6136475,8.009234428,-0.874511719,-0.277832031,-1.502929688, 
330,571053184,1.247244954,-0.782606184,-102.2758255,-0.051756695,0.174062401,9.536212921,11.75138855,-104.9981842,7.118317604,-0.88671875,-0.280761719,-1.498535156, 
331,571061517,1.341965556,-1.609655857,-102.2396317,0.340406388,0.293286055,9.458856583,12.73237705,-100.5362549,7.217427731,-0.8984375,-0.282714844,-1.4921875, 
332,571069850,1.423774123,-2.30032897,-102.1930542,0.434659094,0.16943869,9.417313576,11.28108025,-84.121315,8.015269279,-0.911132813,-0.283691406,-1.483398438, 
333,571078183,1.480460525,-2.969503641,-102.1309586,0.3653723,0.337462664,9.439955711,8.423893929,-81.49937439,10.08708763,-0.919921875,-0.286621094,-1.478515625, 
334,571086516,1.543510675,-3.713096142,-102.0657349,0.625649929,0.364498168,9.429679871,9.296179771,-90.39274597,10.59557343,-0.930175781,-0.284667969,-1.473144531, 
335,571094849,1.61026752,-4.514585495,-102.0018311,0.722665131,0.310042888,9.452313423,9.843288422,-97.34454346,10.88922882,-0.944335938,-0.281738281,-1.466308594, 
336,571103182,1.669153929,-5.361628056,-101.9365234,0.662175655,0.276139975,9.512836456,9.01547718,-102.779747,11.1452446,-0.95703125,-0.282714844,-1.456542969, 
337,571111515,1.724956751,-6.19695282,-101.8818817,0.924812734,0.332946926,9.505483627,8.625673294,-101.4203796,9.92017746,-0.962402344,-0.284667969,-1.452148438, 
338,571119848,1.770905972,-6.9554739,-101.8382645,1.05709362,0.315861136,9.53627491,7.387764931,-92.22087097,8.403633118,-0.976074219,-0.286132813,-1.441894531, 
339,571128181,1.807872772,-7.67250967,-101.8048172,1.233256698,0.300572187,9.480640411,6.233228207,-87.2913208,7.229552269,-0.987792969,-0.284179688,-1.438964844, 
340,571136514,1.847740173,-8.370322227,-101.7778778,1.328020573,0.26775986,9.329672813,6.509220123,-84.9923172,6.300130844,-0.996582031,-0.283203125,-1.431152344, 
341,571144847,1.891300797,-9.144831657,-101.7647781,1.207168579,0.361105353,9.071433067,6.735892296,-94.25856781,5.015165329,-1.008789063,-0.284667969,-1.420410156, 
342,571153180,1.968626976,-10.06790924,-101.7587585,1.762418032,0.357629687,8.98707962,10.67414761,-112.08181,4.872509956,-1.021484375,-0.285644531,-1.416503906, 
343,571161513,2.057345867,-10.97340107,-101.7510681,1.922519803,0.273377389,9.006439209,12.10604382,-109.9743347,5.267995834,-1.033203125,-0.286621094,-1.408203125, 
344,571169846,2.134069204,-11.74905491,-101.7550735,1.868043542,0.200054094,9.113690376,10.38597584,-94.43321228,3.36452055,-1.041992188,-0.286132813,-1.3984375, 
345,571178179,2.192926168,-12.47780228,-101.7565002,2.085072994,0.361543834,9.30375576,8.297392845,-88.80955505,3.566487074,-1.051269531,-0.288574219,-1.386230469, 
346,571186512,2.239141464,-13.18992996,-101.7560959,2.285795927,0.350196719,9.2433815,6.830874443,-86.78883362,3.780429602,-1.0625,-0.290039063,-1.3828125, 
347,571194845,2.280177832,-13.87922573,-101.7542953,2.300741911,0.346490562,9.125879288,6.244340897,-84.05908966,3.903672218,-1.070800781,-0.288085938,-1.374023438, 
348,571203178,2.315175056,-14.57621765,-101.7453537,2.388495445,0.44378978,9.146306992,5.736920357,-84.92983246,4.822896481,-1.080566406,-0.286621094,-1.366210938, 
349,571211511,2.350090265,-15.28672981,-101.7301636,2.578302622,0.423122406,9.006389618,5.929593563,-86.53534698,5.662973881,-1.089355469,-0.290527344,-1.358398438, 
350,571219844,2.383112907,-15.9456749,-101.7182007,2.625151396,0.312447578,8.878741264,5.623548031,-80.34686279,5.076911449,-1.098632813,-0.288574219,-1.3515625, 
351,571228177,2.410144567,-16.53894615,-101.7109909,2.758887291,0.394143224,8.855259895,4.755612373,-72.51220703,4.238330364,-1.100585938,-0.289550781,-1.34375, 
352,571236510,2.432433605,-17.08735466,-101.704071,2.812273026,0.419380754,8.862241745,4.18871212,-67.11569214,4.006517887,-1.112304688,-0.286621094,-1.33984375, 
353,571244843,2.472135782,-17.69960785,-101.7007675,2.878260136,0.433769941,8.790001869,6.153044224,-74.80203247,3.952462673,-1.115722656,-0.285644531,-1.330566406, 
354,571253176,2.558300972,-18.4458313,-101.6957092,3.212127209,0.400735497,8.96090889,11.80196095,-90.83430481,4.936424732,-1.126464844,-0.287109375,-1.322753906, 
355,571261509,2.649298191,-19.17096519,-101.6956406,3.206375122,0.35206449,9.089278221,12.19257545,-88.34168243,4.39321804,-1.135253906,-0.288085938,-1.318847656, 
356,571269842,2.725283623,-19.83220291,-101.7159119,3.169345379,0.429083109,9.046300888,9.579767227,-80.76794434,1.858208537,-1.142578125,-0.291015625,-1.303222656, 
357,571278175,2.794543028,-20.50242233,-101.7446747,3.400669813,0.504193008,9.105837822,8.391042709,-81.90329742,1.066711187,-1.150390625,-0.288085938,-1.297851563, 
358,571286508,2.863996029,-21.2069397,-101.7773132,3.61024642,0.472195953,8.997243881,8.213999748,-86.01798248,0.948859811,-1.16015625,-0.290527344,-1.289550781, 
359,571294841,2.934045792,-21.88747406,-101.8205338,3.60886097,0.470111459,8.93621254,7.771355152,-83.21993256,-0.255670041,-1.16796875,-0.293457031,-1.279785156, 
360,571303174,2.993833542,-22.49711609,-101.8734894,3.622693062,0.533873856,8.869193077,6.046987534,-74.76223755,-1.664690256,-1.169921875,-0.291992188,-1.271972656, 
361,571311507,3.051445723,-23.11315727,-101.9216309,3.781126022,0.545413673,8.637948036,5.944722652,-75.51816559,-0.98715198,-1.179199219,-0.293945313,-1.266113281, 
362,571319840,3.122512102,-23.79413795,-101.9544525,4.038795471,0.520910919,8.603475571,8.234130859,-83.19261932,1.220858812,-1.184570313,-0.295410156,-1.255859375, 
363,571328173,3.190139532,-24.54724884,-101.9625931,4.048537731,0.553166151,8.426417351,8.984170914,-91.6993866,4.51619482,-1.194335938,-0.291992188,-1.248046875, 
364,571336506,3.256190062,-25.32666016,-101.9473877,4.221329212,0.542308927,8.075837135,9.968665123,-94.68771362,7.33895874,-1.202636719,-0.295898438,-1.238769531, 
365,571344839,3.30919528,-25.9988575,-101.9284821,4.19806385,0.449907541,8.1671381,8.614862442,-81.82920837,7.097696304,-1.211425781,-0.296386719,-1.227050781, 
366,571353172,3.338778257,-26.59659004,-101.8946457,4.165206432,0.506957293,8.267921448,6.622283936,-72.7950058,8.221413612,-1.217773438,-0.293457031,-1.21875, 
367,571361505,3.361595392,-27.19053268,-101.8493881,4.315244675,0.493531555,8.171504021,6.463386059,-72.28061676,9.43062973,-1.22265625,-0.295410156,-1.213867188, 
368,571369838,3.394304752,-27.7724762,-101.8203888,4.33995676,0.386377156,8.089457512,6.804811478,-70.92855835,7.627390862,-1.230957031,-0.291992188,-1.201660156, 
369,571378171,3.425939083,-28.29567909,-101.8128052,4.284646988,0.407422334,8.129575729,5.493312836,-64.03775024,4.968296528,-1.233398438,-0.292480469,-1.194824219, 
370,571386504,3.45520997,-28.75000763,-101.8208618,4.446687698,0.508839011,8.159334183,4.324629784,-55.87179947,2.85477829,-1.239257813,-0.291992188,-1.189453125, 
371,571394837,3.478900433,-29.13154602,-101.8312759,4.722279072,0.546435416,8.121522903,3.507274628,-47.17844391,2.10932374,-1.240722656,-0.295410156,-1.185058594, 
372,571403170,3.505422592,-29.4618988,-101.8393936,4.878891945,0.498469085,7.997124195,3.979984045,-41.01895523,1.996184468,-1.247558594,-0.291503906,-1.180175781, 
373,571411503,3.55698514,-29.74659157,-101.8455887,5.093595982,0.477477968,7.979678154,7.090692997,-35.54917526,1.892227888,-1.246582031,-0.289550781,-1.174804688, 
374,571419836,3.621969223,-29.97218513,-101.8538971,5.16123867,0.516697943,8.060847282,8.574819565,-28.46947098,1.261181831,-1.249511719,-0.294921875,-1.17578125, 
375,571428169,3.695663452,-30.11570168,-101.8738174,5.137994289,0.511795998,8.097922325,8.917663574,-18.72905731,-0.532955587,-1.252929688,-0.292480469,-1.169433594, 
376,571436502,3.772498369,-30.14930534,-101.9116745,5.132465363,0.518205166,8.212985992,8.213243484,-5.677805901,-3.227675915,-1.251464844,-0.29296875,-1.168457031, 
377,571444835,3.836761475,-30.07237053,-101.9584122,5.103488445,0.512542069,8.339426994,6.168523788,7.481841564,-5.021735191,-1.250488281,-0.294433594,-1.171386719, 
378,571453168,3.885638237,-29.92412758,-102.0194321,5.053447247,0.463917226,8.222892761,3.479079962,15.92455387,-7.092582703,-1.249023438,-0.296875,-1.166992188, 
379,571461501,3.925715685,-29.7267189,-102.0845718,5.07653904,0.489272654,8.188526154,2.192169428,21.76485825,-7.946551323,-1.249023438,-0.296875,-1.170898438, 
380,571469834,3.948215246,-29.46179199,-102.146347,4.870466709,0.595057905,8.291837692,0.311776727,29.87598228,-8.184280396,-1.249511719,-0.298828125,-1.173339844, 
381,571478167,3.940985441,-29.12335396,-102.205246,4.758125782,0.568720341,8.259830475,-3.054988384,38.68665314,-8.508958817,-1.245605469,-0.300292969,-1.181152344, 
382,571486500,3.915951967,-28.70526695,-102.2640076,4.718326569,0.587156296,8.226411819,-5.140377998,48.23207855,-9.16563797,-1.239746094,-0.299804688,-1.184570313, 
383,571494833,3.869708061,-28.19577789,-102.3213882,4.647738934,0.619638622,8.254297256,-7.558746815,59.18014145,-9.757556915,-1.235839844,-0.301757813,-1.189453125, 
384,571503166,3.811079502,-27.57395935,-102.3873062,4.475955486,0.602945209,8.18991375,-9.462852478,72.58740997,-11.54376221,-1.229492188,-0.299804688,-1.201660156, 
385,571511499,3.750990868,-26.94201469,-102.4442215,4.417505264,0.626238048,7.959297657,-9.068073273,73.86057281,-10.62483788,-1.225585938,-0.30078125,-1.206054688, 
386,571519832,3.705071926,-26.33126259,-102.4838943,4.489013195,0.615864217,8.16217041,-6.369930744,71.46389771,-8.58119297,-1.218261719,-0.301757813,-1.217285156, 
387,571528165,3.654027462,-25.66548538,-102.5169449,4.357950687,0.610837758,8.421647072,-6.595470428,78.09467316,-8.25584507,-1.207519531,-0.3046875,-1.228027344, 
388,571536498,3.588332891,-24.93658066,-102.5513763,4.13530159,0.629529893,8.437672615,-8.375114441,85.6624527,-8.820934296,-1.201171875,-0.303222656,-1.236328125, 
389,571544831,3.537861109,-24.22564316,-102.57547,4.236856937,0.632967114,8.337791443,-5.989952087,83.5798111,-7.493721485,-1.196289063,-0.30078125,-1.245605469, 
390,571553164,3.491238356,-23.47715759,-102.5857086,4.176972866,0.633675635,8.420568466,-4.818262577,88.18590546,-6.195165157,-1.187011719,-0.302734375,-1.251953125, 
391,571561497,3.436346054,-22.69680023,-102.580307,3.779259443,0.589980543,8.479708672,-5.06349802,92.10209656,-4.630152702,-1.178222656,-0.303222656,-1.262207031, 
392,571569830,3.385585308,-21.92483521,-102.5687103,3.637623072,0.505450249,8.5366745,-4.289801121,91.15393066,-3.79531455,-1.171386719,-0.303710938,-1.274902344, 
393,571578163,3.338658094,-21.11129189,-102.5603333,3.650343657,0.532458723,8.69879818,-3.992471933,96.10942078,-4.357656956,-1.161132813,-0.30078125,-1.283203125, 
394,571586496,3.292826653,-20.2407856,-102.5585938,3.433919907,0.53220284,8.763364792,-4.151722431,102.9030991,-5.417384624,-1.152832031,-0.3046875,-1.291015625, 
395,571594829,3.24470973,-19.27638626,-102.5628586,3.335637093,0.434287518,8.923060417,-4.678263187,114.1096268,-6.650299549,-1.143554688,-0.302734375,-1.303710938, 
396,571603162,3.173183918,-18.11180496,-102.5746918,3.247903585,0.357133925,9.270118713,-7.763678074,138.061615,-8.73250103,-1.130371094,-0.30078125,-1.316894531, 
397,571611495,3.056323528,-16.69848633,-102.5930252,2.901628971,0.371251583,9.305775642,-13.41308975,167.832428,-10.88113499,-1.115234375,-0.303710938,-1.333007813, 
398,571619828,2.902638674,-15.33569431,-102.5953598,2.315743923,0.613584042,8.821886063,-17.24564934,161.9060364,-8.336373329,-1.09765625,-0.303222656,-1.346679688, 
399,571628161,2.819859743,-14.39105988,-102.588501,2.696144342,0.63039434,8.539394379,-8.453099251,111.8523026,-4.431337833,-1.083007813,-0.299316406,-1.359863281, 
400,571636494,2.805712938,-13.75994396,-102.553833,2.908382893,0.606738031,8.707653046,0.58719635,74.44540405,0.743008435,-1.072265625,-0.302246094,-1.368164063, 
401,571644827,2.812423468,-13.21607685,-102.509491,2.339624882,0.43527624,8.88421154,3.316581488,64.03614044,2.404403925,-1.068359375,-0.299804688,-1.375488281, 
402,571653160,2.817066193,-12.63483143,-102.4795761,2.007918119,0.375546843,9.071075439,2.632885218,68.44155884,0.499492437,-1.059570313,-0.301269531,-1.380371094, 
403,571661493,2.816646576,-12.01014328,-102.4662247,2.047069073,0.439463705,9.224677086,1.560490727,73.54699707,-1.690291524,-1.05078125,-0.299316406,-1.388183594, 
404,571669826,2.816664457,-11.35566616,-102.4560547,2.103680611,0.474694937,9.300853729,1.523337603,77.10613251,-2.23676157,-1.045898438,-0.300292969,-1.392578125, 
405,571678159,2.811497927,-10.70850754,-102.4336624,1.906179786,0.469125718,9.327033043,1.163417339,76.29314423,-0.744404674,-1.034667969,-0.304199219,-1.399902344, 
406,571686492,2.808407307,-10.11115742,-102.4112701,1.79715097,0.426534504,9.16322422,1.387695551,70.32891083,-0.445305377,-1.028320313,-0.301269531,-1.407714844, 
407,571694825,2.812542439,-9.498142242,-102.3935013,1.79574728,0.46707055,9.094514847,2.128898621,72.1749649,-1.073958635,-1.020507813,-0.301757813,-1.414550781, 
408,571703158,2.816380024,-8.764037132,-102.3734131,1.55025506,0.472720414,9.114016533,2.116531372,86.7082901,-1.519062519,-1.012207031,-0.30078125,-1.416992188, 
409,571711491,2.814135313,-7.902033806,-102.3528824,1.093947649,0.460104972,9.362609863,1.357323647,102.034668,-2.215318441,-1,-0.301757813,-1.422363281, 
410,571719824,2.804297447,-6.967504025,-102.341156,0.960567713,0.467591047,9.520778656,0.275048614,110.6823196,-3.670060158,-0.98828125,-0.303222656,-1.434082031, 
411,571728157,2.791398764,-6.058414459,-102.3353882,0.966571093,0.517691076,9.323992729,-0.178725153,107.6024017,-4.020053864,-0.972167969,-0.305175781,-1.444824219, 
412,571736490,2.789756775,-5.199179649,-102.3304062,0.941426814,0.490035117,9.195671082,1.135386944,101.6198654,-3.994409561,-0.960449219,-0.300292969,-1.450683594, 
413,571744823,2.794621468,-4.365268707,-102.3287506,0.793424308,0.459810823,9.238578796,1.869471073,98.55976105,-4.249322891,-0.950195313,-0.302734375,-1.453125, 
414,571753156,2.803323984,-3.564278364,-102.3289642,0.724203944,0.455593437,9.288229942,2.316556692,94.60874939,-4.28780508,-0.937011719,-0.3046875,-1.462890625, 
415,571761489,2.81514287,-2.808005333,-102.326683,0.767692268,0.497264564,9.28107357,2.714449406,89.26603699,-3.517268896,-0.927246094,-0.304199219,-1.470703125, 
416,571769822,2.840193272,-2.107241392,-102.3128967,0.81232506,0.460660458,9.350247383,4.352153778,82.67611694,-2.065416098,-0.916992188,-0.302246094,-1.474121094, 
417,571778155,2.872822285,-1.448503375,-102.2908707,0.591161013,0.479783356,9.493900299,5.27300024,77.69207764,-0.638118029,-0.908203125,-0.303222656,-1.477050781, 
418,571786488,2.906391859,-0.812290072,-102.2600021,0.284400225,0.487915933,9.44143486,5.375570774,75.0402832,0.280925512,-0.900878906,-0.307617188,-1.482910156, 
419,571794821,2.929838657,-0.134542167,-102.2344742,0.042008646,0.464418471,9.467035294,4.1106987,79.99238586,-0.404873729,-0.887207031,-0.307617188,-1.489746094, 
420,571803154,2.931565285,0.614817619,-102.2013397,-0.207077995,0.544931114,9.413733482,1.464311719,88.61392975,-0.19733341,-0.874511719,-0.307617188,-1.494628906, 
421,571811487,2.917195559,1.412807345,-102.1690292,-0.389243901,0.530485034,9.413238525,-0.528809965,94.44403076,-0.32868439,-0.866210938,-0.307128906,-1.502929688, 
422,571819820,2.897918224,2.234207153,-102.1399689,-0.300170213,0.483500779,9.452040672,-1.150255203,97.22376251,-1.088063359,-0.856933594,-0.306640625,-1.504394531, 
423,571828153,2.863924503,3.140220404,-102.1156387,-0.523824215,0.421341956,9.483811378,-2.960164785,107.343605,-1.856948256,-0.838378906,-0.3046875,-1.510253906, 
424,571836486,2.803956747,4.113240242,-102.0868073,-0.981815398,0.44899568,9.517729759,-6.140572548,115.3960342,-1.894783974,-0.829101563,-0.306152344,-1.515625, 
425,571844819,2.716246843,5.131791115,-102.0625381,-1.160434008,0.437234879,9.524657249,-9.51262188,120.836319,-2.293617964,-0.812011719,-0.303710938,-1.522949219, 
426,571853152,2.607563257,6.219545841,-102.045372,-1.117251277,0.379968584,9.457720757,-11.97187328,129.0906525,-3.586545706,-0.794921875,-0.303222656,-1.530273438, 
427,571861485,2.485679388,7.335617065,-102.0340958,-1.230196595,0.428974897,9.319003105,-13.54912949,132.4672852,-3.918078184,-0.777832031,-0.30078125,-1.538085938, 
428,571869818,2.356859684,8.290416718,-102.031105,-1.343783379,0.597968221,9.033790588,-14.23307133,113.0949326,-4.055753231,-0.764160156,-0.298339844,-1.544433594, 
429,571878151,2.291234016,8.9409132,-102.0371017,-1.108297944,0.631934524,9.110239029,-6.53850317,76.57434845,-3.178666353,-0.748535156,-0.297851563,-1.546386719, 
430,571886484,2.269998074,9.405182838,-102.0273743,-1.321788073,0.519613385,9.373854637,-1.460911632,54.3181076,-0.637155712,-0.741699219,-0.299316406,-1.551269531, 
431,571894817,2.260528326,9.749004364,-102.0162354,-1.778382182,0.483167499,9.382740021,-0.135064051,39.8865242,0.385456353,-0.73828125,-0.294921875,-1.551269531, 
432,571903150,2.265285015,9.984285355,-102.0086365,-1.784657836,0.461430907,9.489647865,1.687735915,26.85030746,0.213225842,-0.733398438,-0.295898438,-1.550292969, 
433,571911483,2.278493404,10.16825771,-102.0005798,-1.826789737,0.427728981,9.531847954,2.684437037,20.69394112,0.506304026,-0.730957031,-0.295410156,-1.553222656, 
434,571919816,2.28491497,10.34622574,-101.992485,-2.058424711,0.447135985,9.471297264,1.871235728,19.9803524,0.533455074,-0.729003906,-0.296386719,-1.554199219, 
435,571928149,2.281308174,10.52659798,-101.9897537,-2.206851959,0.385587901,9.39125824,0.77663672,20.23739052,-0.109475277,-0.723632813,-0.296386719,-1.555664063, 
436,571936482,2.258692026,10.75427246,-101.9968109,-2.051173925,0.330355734,9.302499771,-1.284618735,25.86908913,-1.484768629,-0.719238281,-0.297363281,-1.556152344, 
437,571944815,2.208161116,11.07661247,-102.0182877,-2.063980341,0.276927143,9.362466812,-4.30816555,37.14943314,-3.604311466,-0.716308594,-0.298339844,-1.561035156, 
438,571953148,2.133380413,11.47253227,-102.0515671,-2.02581048,0.297743946,9.319727898,-6.920094967,45.93178558,-5.281472683,-0.711914063,-0.298828125,-1.556152344, 
439,571961481,2.050303698,11.90777969,-102.08564,-2.080494404,0.32747972,9.291464806,-7.872104645,50.64463043,-5.479729176,-0.703613281,-0.294921875,-1.559570313, 
440,571969814,1.960725784,12.39280319,-102.1195145,-2.032328844,0.261749923,9.111050606,-8.62077713,56.63212585,-5.578693867,-0.694335938,-0.292480469,-1.562988281, 
441,571978147,1.86575222,12.97372055,-102.154335,-2.099203825,0.224030435,9.014349937,-9.211736679,68.13047791,-5.975083828,-0.684082031,-0.293457031,-1.56640625, 
442,571986480,1.7617836,13.64553738,-102.1841125,-2.206510305,0.26340735,9.003617287,-10.37999535,79.07283783,-5.594845295,-0.676269531,-0.292480469,-1.566894531, 
443,571994813,1.65106535,14.25158691,-102.2113113,-2.252958775,0.384659708,8.872824669,-11.23181725,71.19425964,-4.905174255,-0.666015625,-0.293945313,-1.57421875, 
444,572003146,1.572134256,14.68998718,-102.2357101,-2.158568621,0.422495276,9.047451019,-7.46623373,51.11262131,-3.881897449,-0.654785156,-0.285644531,-1.577148438, 
445,572011479,1.52004683,15.05055618,-102.2491913,-2.268407345,0.26372382,9.150978088,-4.567537785,41.80414963,-2.302441597,-0.650390625,-0.286621094,-1.577148438, 
446,572019812,1.459258795,15.43267059,-102.2630157,-2.612274408,0.1953796,9.105947495,-5.584925175,44.40079117,-2.361239433,-0.643066406,-0.285644531,-1.573730469, 
447,572028145,1.3888731,15.82276821,-102.2886734,-2.706517935,0.209664971,9.070040703,-6.349294186,45.31916046,-3.699727058,-0.639648438,-0.291015625,-1.576660156, 
448,572036478,1.328230262,16.21281624,-102.3154984,-2.666898251,0.236750379,9.209964752,-5.114223957,45.32345963,-3.773521185,-0.631835938,-0.286132813,-1.579101563, 
449,572044811,1.270136952,16.64352798,-102.3340378,-2.883160114,0.193914026,9.213027,-5.075984001,50.21898651,-2.872950077,-0.622070313,-0.281738281,-1.579589844, 
450,572053144,1.193044424,17.13354492,-102.3522415,-3.132129431,0.193340227,9.078104019,-7.342956543,57.34756088,-2.923438072,-0.617675781,-0.286132813,-1.583496094, 
451,572061477,1.102670431,17.58451653,-102.3776093,-3.153900385,0.241407067,8.87055397,-8.667711258,52.64307022,-3.561527252,-0.611816406,-0.284667969,-1.584960938, 
452,572069810,1.028077722,17.93263817,-102.3980026,-3.061092138,0.274572819,8.998022079,-6.931222439,40.32709885,-2.678407669,-0.604003906,-0.280761719,-1.587402344, 
453,572078143,0.961513698,18.23542786,-102.403595,-3.005797625,0.24042742,9.033427238,-6.512376308,34.91246414,-0.839712441,-0.598144531,-0.281738281,-1.587402344, 
454,572086476,0.893316329,18.53136253,-102.4065247,-3.062868118,0.142916694,8.846425056,-6.79886961,34.10675812,-0.476374,-0.59375,-0.279296875,-1.585449219, 
455,572094809,0.832475424,18.80707359,-102.4119263,-3.150537729,0.189137951,8.840210915,-5.825091839,31.66486931,-0.686462104,-0.588867188,-0.278320313,-1.587402344, 
456,572103142,0.778384268,19.07531548,-102.4144821,-3.173176527,0.173266932,8.875349045,-5.116780758,30.78565788,-0.314440608,-0.580566406,-0.277832031,-1.588378906, 
457,572111475,0.724465489,19.38080597,-102.4140396,-3.243514299,0.051049311,8.749360085,-5.221377373,35.24971008,0.000384214,-0.580078125,-0.27734375,-1.58984375, 
458,572119808,0.661363602,19.76314545,-102.4155045,-3.320312262,0.030526355,8.78178215,-6.238793373,44.47977448,-0.291464895,-0.570800781,-0.275390625,-1.591308594, 
459,572128141,0.584461153,20.15689468,-102.4216919,-3.352427006,0.154946685,8.657377243,-7.708567619,45.83334351,-0.779852509,-0.563964844,-0.2734375,-1.591796875, 
460,572136474,0.518750131,20.45270538,-102.4384842,-3.265600443,0.169049501,8.566260338,-5.912283421,34.08098984,-1.80186069,-0.562011719,-0.273925781,-1.593261719, 
461,572144807,0.475596815,20.67036819,-102.4550705,-3.261894226,0.141546875,8.687026024,-3.21064353,24.69486427,-1.663030863,-0.557128906,-0.272460938,-1.59375, 
462,572153140,0.435325593,20.86270523,-102.4686966,-3.473455429,0.115601957,8.705353737,-2.980409861,21.66980743,-1.281186342,-0.553222656,-0.274902344,-1.595214844, 
463,572161473,0.402221531,21.0213623,-102.4806519,-3.459387064,0.149019182,8.758481026,-2.189927816,17.621418,-1.053757071,-0.547363281,-0.270996094,-1.596679688, 
464,572169806,0.385862112,21.17555428,-102.4876633,-3.44922924,0.119683079,8.86080265,-0.387210459,17.10007858,-0.480856091,-0.547851563,-0.271484375,-1.595214844, 
465,572178139,0.373179913,21.35882759,-102.4890289,-3.586719275,0.078396253,8.858426094,-0.195295796,20.58414459,0.12958245,-0.547851563,-0.268554688,-1.595214844, 
466,572186472,0.357960224,21.55972481,-102.4783783,-3.599391222,0.112168044,8.859706879,-1.02079165,22.71806908,1.466799736,-0.541015625,-0.270507813,-1.596679688, 
467,572194805,0.343711138,21.70836449,-102.4585266,-3.672793865,0.151979864,8.734204292,-1.318698287,16.44207764,2.533082247,-0.536621094,-0.270996094,-1.592773438, 
468,572203138,0.345178396,21.71326637,-102.4316101,-3.595209599,0.148486301,8.730843544,0.254848838,-0.791403115,3.427095175,-0.536132813,-0.271972656,-1.59765625, 
469,572211471,0.365537703,21.62208366,-102.3943863,-3.606069088,0.107911192,8.860060692,2.060908556,-12.32441807,4.649842262,-0.537109375,-0.271972656,-1.59765625, 
470,572219804,0.381083995,21.51101494,-102.3560104,-3.752108812,0.022046098,8.854668617,1.446474671,-14.69737339,4.800506115,-0.542480469,-0.272949219,-1.595214844, 
471,572228137,0.386217386,21.36745071,-102.3230743,-3.796601534,0.075318992,8.871430397,0.438093185,-18.61205292,4.224262238,-0.544433594,-0.270019531,-1.595214844, 
472,572236470,0.392495096,21.17385674,-102.2943649,-3.577615499,0.044554438,8.800602913,0.777149081,-24.60699272,3.800040245,-0.542480469,-0.270996094,-1.59375, 
473,572244803,0.400292814,20.92434883,-102.2695694,-3.548481703,0.094919525,8.611217499,1.134340167,-31.33090019,3.411627531,-0.548339844,-0.272460938,-1.596191406, 
474,572253136,0.427335799,20.51378441,-102.2511063,-3.376209497,0.152243465,8.66074276,3.736421347,-50.6493988,2.859541655,-0.556152344,-0.26953125,-1.592773438, 
475,572261469,0.482581586,19.98804092,-102.2283325,-3.292540073,0.147600263,8.879833221,6.951127529,-64.4796524,3.49104166,-0.562011719,-0.26953125,-1.594238281, 
476,572269802,0.542425156,19.40262794,-102.2133255,-3.445719719,0.09628126,8.808655739,7.848504543,-71.63008881,2.755501509,-0.573242188,-0.272460938,-1.594726563, 
477,572278135,0.619262695,18.7447834,-102.2026978,-3.408873796,0.100835204,8.912072182,10.07126808,-80.33650208,2.435569286,-0.582519531,-0.2734375,-1.592285156, 
478,572286468,0.694753051,18.01340294,-102.1928482,-3.356273651,0.230842337,9.024739265,9.960448265,-89.14598846,2.558291197,-0.59375,-0.274902344,-1.586914063, 
479,572294801,0.791749001,17.15829659,-102.1712341,-2.882334471,0.338571787,8.905768394,12.12326908,-103.9856415,4.231448174,-0.610351563,-0.276855469,-1.587402344, 
480,572303134,0.921526015,16.26744652,-102.1396103,-2.560674906,0.19779183,8.849347115,15.75566196,-108.23526,5.664596558,-0.622558594,-0.275390625,-1.579589844, 
481,572311467,1.046511889,15.41170597,-102.1196671,-2.660053968,0.13090165,8.769824982,15.61268425,-104.0473709,4.494766712,-0.634765625,-0.275878906,-1.581054688, 
482,572319800,1.17240274,14.5560112,-102.1220779,-2.498507023,0.144567013,8.897418022,16.45603943,-104.0689087,2.140461683,-0.650878906,-0.280761719,-1.578125, 
483,572328133,1.304407716,13.69091415,-102.1209793,-2.418814898,0.168934405,9.179115295,17.07596397,-105.197937,2.801136494,-0.6640625,-0.284179688,-1.573730469, 
484,572336466,1.434141397,12.83620644,-102.1092224,-2.467356682,0.202798814,9.394863129,16.51820564,-103.903389,4.254117489,-0.677246094,-0.286132813,-1.5703125, 
485,572344799,1.555913568,11.94332981,-102.1048203,-2.289903164,0.191324785,9.245603561,15.76658535,-108.5100708,3.738091707,-0.690917969,-0.287597656,-1.566894531, 
486,572353132,1.686641455,10.99910259,-102.1101074,-1.88677609,0.216499671,9.371090889,17.0877037,-114.6791916,3.016099215,-0.705078125,-0.290039063,-1.562011719, 
487,572361465,1.819904804,10.0729599,-102.1128922,-1.563465834,0.285891294,9.325901985,17.32086372,-112.509079,3.503056049,-0.720703125,-0.291015625,-1.557617188, 
488,572369798,1.952135921,9.219673157,-102.1131821,-1.726574898,0.237248152,9.121893883,17.14764023,-103.7402802,3.765969038,-0.736328125,-0.293457031,-1.552734375, 
489,572378131,2.082638741,8.406322479,-102.1109161,-1.547516823,0.335403383,9.261569023,16.88692284,-98.94529724,4.134020329,-0.751464844,-0.293945313,-1.55078125, 
490,572386464,2.211468458,7.599934578,-102.0999069,-1.399899721,0.429085374,9.390398979,16.54932404,-98.04929352,5.36512804,-0.76171875,-0.296875,-1.540527344, 
491,572394797,2.339254618,6.79395771,-102.0843811,-1.154933095,0.425090879,9.305508614,16.33148193,-97.9697113,6.411234379,-0.773925781,-0.297851563,-1.537597656, 
492,572403130,2.460165977,6.056167126,-102.0550537,-0.884477496,0.431622565,9.324728012,15.38974667,-89.71045685,7.6325984,-0.784179688,-0.301757813,-1.53515625, 
493,572411463,2.564800024,5.436542988,-102.0206146,-0.958222508,0.379989505,9.218873978,13.38052177,-75.50512695,8.087800026,-0.797363281,-0.299804688,-1.529296875, 
494,572419796,2.655548334,4.86782074,-101.9895935,-0.958482206,0.449969649,9.164206505,11.82987118,-69.40571594,7.242520809,-0.804199219,-0.302734375,-1.526367188, 
495,572428129,2.760569811,4.201042175,-101.9605713,-0.571282804,0.580238879,9.216126442,13.5730896,-81.15922546,7.966637135,-0.813476563,-0.301757813,-1.523925781, 
496,572436462,2.876851559,3.464015007,-101.9152756,-0.425214291,0.517100453,9.567688942,14.86417675,-89.469841,10.19687176,-0.82421875,-0.302246094,-1.515625, 
497,572444795,2.976470232,2.73653245,-101.8730545,-0.576671064,0.410076082,9.492152214,12.93297482,-88.32476044,10.21912575,-0.840332031,-0.308105469,-1.510253906, 
498,572453128,3.061461926,2.04627037,-101.8380203,-0.443286479,0.449327379,9.57702446,11.29748631,-83.89488983,8.98845005,-0.844238281,-0.3046875,-1.509765625, 
499,572461461,3.140213728,1.335432172,-101.8133087,-0.390123129,0.561252236,9.552956581,10.62239742,-86.41294861,8.286337852,-0.858398438,-0.306152344,-1.500976563, 
500,572469794,3.219826937,0.542087376,-101.7979126,-0.274572968,0.544912875,9.429314613,10.79670715,-96.35271454,7.555736542,-0.87109375,-0.306640625,-1.498046875, 
501,572478127,3.311675549,-0.338030159,-101.7966537,-0.011246294,0.507691145,9.512767792,12.288414,-106.8322983,6.870000362,-0.884765625,-0.306640625,-1.489257813, 
502,572486460,3.401726484,-1.229380369,-101.8010712,-0.024266951,0.564662099,9.594986916,12.07376671,-108.2093811,6.161683559,-0.900878906,-0.30859375,-1.481445313, 
503,572494793,3.481734753,-2.082062483,-101.8103485,0.03435301,0.620936394,9.43379879,10.8437233,-103.6015091,5.731304169,-0.91015625,-0.311035156,-1.474121094, 
504,572503126,3.546393156,-2.8419137,-101.8201599,0.283162564,0.621709466,9.468286514,8.98194313,-92.4834137,4.844419003,-0.918945313,-0.313476563,-1.466308594, 
505,572511459,3.601292849,-3.579988241,-101.8204346,0.39685443,0.685857117,9.431865692,7.867199898,-89.796875,6.176110268,-0.931640625,-0.311523438,-1.463867188, 
506,572519792,3.663521528,-4.385101318,-101.8172379,0.558812916,0.683069527,9.40289402,8.769069672,-97.79401398,6.934203625,-0.943359375,-0.312988281,-1.456054688, 
507,572528125,3.72604537,-5.185173035,-101.8209839,0.753720045,0.649353445,9.454546928,8.752213478,-97.2379837,6.412769794,-0.955566406,-0.310058594,-1.448730469, 
508,572536458,3.786373138,-5.932919025,-101.8280411,0.750264883,0.646803141,9.322012901,8.432114601,-90.99124146,5.46660471,-0.965332031,-0.311523438,-1.441894531, 
509,572544791,3.864922762,-6.718581676,-101.8504028,1.038523436,0.643616438,9.176696777,10.42173576,-95.64676666,4.290944099,-0.978027344,-0.310058594,-1.437988281, 
510,572553124,3.9610672,-7.561248302,-101.8762512,1.339241624,0.611517906,9.307549477,12.42674732,-102.4932632,4.261211395,-0.989257813,-0.311035156,-1.425292969, 
511,572561457,4.068179607,-8.44794178,-101.9072418,1.401390553,0.548451245,9.300031662,13.60226345,-107.8155212,4.206068516,-0.998046875,-0.314453125,-1.419433594, 
512,572569790,4.185905457,-9.352633476,-101.9394226,1.561592698,0.636362195,9.289058685,14.80399799,-109.9556198,4.439673901,-1.012695313,-0.318359375,-1.408691406, 
513,572578123,4.298396587,-10.22498417,-101.9723282,1.719883442,0.739931107,9.333498001,14.12878799,-106.0831985,4.49302578,-1.020996094,-0.315429688,-1.401855469, 
514,572586456,4.396065712,-11.01742554,-101.9997711,1.81842351,0.769522488,9.299203873,12.38739014,-96.46444702,4.411691666,-1.035644531,-0.319824219,-1.392578125, 
515,572594789,4.479827404,-11.7558279,-102.0258179,2.003148079,0.793296695,9.208498001,10.73919106,-89.98015594,4.418628216,-1.042480469,-0.319824219,-1.3828125, 
516,572603122,4.566052437,-12.53002357,-102.0426483,2.247071981,0.806963146,9.193551064,11.19577599,-94.16905212,5.786775589,-1.053222656,-0.317871094,-1.376953125, 
517,572611455,4.65835762,-13.35324383,-102.0531921,2.404381514,0.803406179,9.216337204,12.06076241,-99.97935486,7.147191525,-1.061523438,-0.319824219,-1.365234375, 
518,572619788,4.753370762,-14.11709309,-102.0618896,2.460715771,0.76960063,8.936635017,12.42740631,-92.83569336,6.938540459,-1.073242188,-0.319335938,-1.359863281, 
519,572628121,4.835576534,-14.75691795,-102.0592117,2.41858387,0.856956065,8.940085411,11.21132183,-77.89802551,7.162892818,-1.080566406,-0.3203125,-1.351074219, 
520,572636454,4.905095577,-15.36088371,-102.0482407,2.434158802,0.916885972,9.025094986,9.958465576,-73.50501251,7.85007143,-1.088867188,-0.322265625,-1.346679688, 
521,572644787,4.976476192,-16.02478027,-102.0289688,2.634678125,0.86448878,9.072573662,10.45826435,-80.59187317,9.512401581,-1.096191406,-0.320800781,-1.335449219, 
522,572653120,5.044260979,-16.71707344,-102.0107346,2.652943373,0.817661464,9.10280323,10.02462959,-83.97470856,9.779371262,-1.106933594,-0.322265625,-1.329589844, 
523,572661453,5.105867863,-17.43887901,-101.9990921,2.688748837,0.802662611,9.204553604,9.069627762,-87.57079315,9.425487518,-1.112304688,-0.319335938,-1.322753906, 
524,572669786,5.159876823,-18.18707657,-101.9910812,2.882769108,0.739859104,9.099722862,8.048524857,-90.74160767,9.375686646,-1.122558594,-0.3203125,-1.311523438, 
525,572678119,5.21030283,-18.92995453,-101.9858093,2.984849453,0.774458408,8.961294174,7.519229889,-90.13884735,9.088419914,-1.130371094,-0.321777344,-1.304199219, 
526,572686452,5.261898041,-19.70828629,-101.9854355,3.057518959,0.81102252,8.736032486,7.48071003,-94.40447235,8.994958878,-1.141601563,-0.320800781,-1.293945313, 
527,572694785,5.309859753,-20.49434853,-101.9944916,3.455561638,0.863976419,8.717610359,6.648215294,-95.43425751,8.109801292,-1.149902344,-0.318359375,-1.284667969, 
528,572703118,5.334395409,-21.16628456,-101.994751,3.67982316,0.988560677,8.454955101,4.207815647,-81.68714905,7.878920555,-1.157714844,-0.322265625,-1.278320313, 
529,572711451,5.329408646,-21.70531273,-101.9873505,3.495421171,0.967069864,8.605677605,0.9926579,-65.73748016,7.269423485,-1.16796875,-0.318847656,-1.266113281, 
530,572719784,5.303284168,-22.23420525,-101.968483,3.602547884,0.981204748,8.573448181,-1.014442801,-64.39879608,8.400680542,-1.170898438,-0.3203125,-1.265136719, 
531,572728117,5.280741215,-22.86179924,-101.9289551,3.885696888,0.916049898,8.511744499,0.379822642,-75.99728394,11.74304581,-1.176269531,-0.317871094,-1.257324219, 
532,572736450,5.249646664,-23.51204872,-101.8804169,3.914311171,0.846207201,8.683530807,-0.164482728,-78.60826111,12.92309284,-1.182617188,-0.316894531,-1.246582031, 
533,572744783,5.204994202,-24.10839653,-101.8436432,3.73969698,0.781205118,8.499142647,-2.311887741,-72.3080368,10.976367,-1.192382813,-0.311523438,-1.239257813, 
534,572753116,5.172678471,-24.64628792,-101.8250427,4.037767887,0.763188004,8.442100525,-1.682964087,-65.49560547,8.292114258,-1.196777344,-0.311523438,-1.236328125, 
535,572761449,5.142123699,-25.14829636,-101.8091736,4.125617027,0.756203413,8.409828186,-1.599691272,-61.25398254,7.570991516,-1.200195313,-0.314941406,-1.229492188, 
536,572769782,5.122161865,-25.6394062,-101.8079147,3.987661839,0.658942044,8.416819572,-1.056462526,-60.08191681,5.839462757,-1.209472656,-0.310058594,-1.220703125, 
537,572778115,5.114405632,-26.16894341,-101.8203964,4.036035538,0.69912827,8.439958572,-0.320051104,-64.82154083,4.76120472,-1.212402344,-0.312011719,-1.216796875, 
538,572786448,5.131220818,-26.75743294,-101.8403854,4.297041893,0.716899335,8.494988441,2.2228899,-71.92823029,4.599005699,-1.220214844,-0.312988281,-1.209472656, 
539,572794781,5.159825325,-27.34768867,-101.8812027,4.405818939,0.683882654,8.522068024,2.4714396,-72.34526062,2.441906214,-1.224121094,-0.309570313,-1.203125, 
540,572803114,5.191565037,-27.91367912,-101.945549,4.645430088,0.724659562,8.425374985,1.500501156,-69.65834808,-0.255579948,-1.227539063,-0.312011719,-1.192382813, 
541,572811447,5.222210884,-28.43917274,-102.0174332,4.795260429,0.749459207,8.252384186,0.871514678,-64.89881897,-1.413321733,-1.231933594,-0.30859375,-1.184570313, 
542,572819780,5.251416683,-28.94234276,-102.0887146,4.715691566,0.795320511,8.105091095,0.671005607,-62.21258163,-1.532197595,-1.240722656,-0.307617188,-1.1796875, 
543,572828113,5.284994602,-29.45513344,-102.1541138,4.94338274,0.852037609,8.088213921,1.468686819,-63.31233597,-0.73390162,-1.244140625,-0.309570313,-1.170898438, 
544,572836446,5.310638428,-29.92747116,-102.20401,5.077850819,0.875345528,8.015804291,1.385516644,-58.31741333,0.483790368,-1.244628906,-0.311523438,-1.164550781, 
545,572844779,5.32736969,-30.33170509,-102.2401733,5.065938473,0.893334389,7.937904835,1.095408082,-50.05550385,1.195098758,-1.249023438,-0.311035156,-1.160644531, 
546,572853112,5.346706867,-30.72655869,-102.2542801,5.168057442,0.871860325,7.982867241,2.734389305,-48.70986938,3.385017395,-1.255371094,-0.3125,-1.155273438, 
547,572861445,5.366714001,-31.09604836,-102.2513962,5.25295639,0.872523606,8.04252243,3.844845057,-45.52503204,4.868647575,-1.255859375,-0.310546875,-1.1484375, 
548,572869778,5.368014812,-31.37743568,-102.2332001,5.146013737,0.857591212,7.767218113,2.561387777,-34.84126282,5.448652744,-1.260253906,-0.308105469,-1.143554688, 
549,572878111,5.360998631,-31.5640564,-102.2098389,4.988418579,0.785200596,7.675045013,1.888038874,-23.47945404,4.909828663,-1.263671875,-0.310546875,-1.143066406, 
550,572886444,5.355508804,-31.70248795,-102.1856689,5.106076241,0.799656749,7.684463024,2.13560009,-17.70543289,4.441727161,-1.265136719,-0.30859375,-1.142089844, 
551,572894777,5.348851204,-31.772995,-102.1678696,5.11173439,0.728808939,7.786811352,1.590144634,-9.659871101,3.033583403,-1.263671875,-0.309570313,-1.139648438, 
552,572903110,5.341851234,-31.77883148,-102.1619339,5.228384018,0.737473011,7.880078316,0.80867976,-2.038482904,1.096737504,-1.265625,-0.30859375,-1.139160156, 
553,572911443,5.337601662,-31.73285866,-102.1673508,5.224886417,0.711698234,7.88730526,0.413477749,4.035996437,-0.626396,-1.266601563,-0.30859375,-1.141113281, 
554,572919776,5.341097832,-31.63500595,-102.1905212,5.217978001,0.705700278,7.881509304,0.232513219,10.07560444,-3.017690182,-1.263183594,-0.310546875,-1.138671875, 
555,572928109,5.353522778,-31.5137825,-102.2234116,5.191264153,0.721493542,7.917878628,0.69057256,12.76658344,-4.270457268,-1.260742188,-0.308105469,-1.140625, 
556,572936442,5.373592854,-31.37604904,-102.2690735,5.16001749,0.725135088,7.986260414,0.824612021,14.62249088,-5.76809597,-1.260742188,-0.307128906,-1.142578125, 
557,572944775,5.396355629,-31.22478294,-102.3245163,5.142565727,0.736035883,7.965958595,0.541254461,16.13425636,-6.9249506,-1.262207031,-0.310546875,-1.143066406, 
558,572953108,5.411567688,-31.02753448,-102.3821487,5.152895451,0.801991642,7.884264469,-0.474106967,21.61063957,-7.692023277,-1.258789063,-0.312011719,-1.147460938, 
559,572961441,5.411484718,-30.77239609,-102.4332504,5.125740528,0.888839483,7.88517952,-1.893982053,28.58305168,-7.690872669,-1.257324219,-0.311523438,-1.150390625, 
560,572969774,5.397869587,-30.46322823,-102.4681778,5.144594193,0.933220983,8.033746719,-2.496314526,35.19759369,-6.655199528,-1.255371094,-0.314941406,-1.154296875, 
561,572978107,5.365481853,-30.12638283,-102.4811783,5.085933208,0.926016212,8.158736229,-3.407056093,38.716465,-4.695991516,-1.250488281,-0.313964844,-1.16015625, 
562,572986440,5.320406437,-29.77006912,-102.4793625,4.969954014,0.831785202,8.171568871,-4.026999474,41.19247818,-3.363282204,-1.251464844,-0.312011719,-1.164550781, 
563,572994773,5.278121471,-29.44522285,-102.4701385,4.841855049,0.86038959,8.082948685,-3.261771679,37.50426483,-2.205490589,-1.245117188,-0.312988281,-1.169921875, 
564,573003106,5.254158974,-29.1965313,-102.4527206,4.910511494,0.846392035,8.070948601,-0.578062415,28.48782539,-0.49625048,-1.240234375,-0.315429688,-1.172851563, 
565,573011439,5.227671146,-28.94678879,-102.4219818,4.760320663,0.846379519,8.140442848,-0.12084806,28.73848915,0.910983741,-1.23828125,-0.313964844,-1.174804688, 
566,573019772,5.190950394,-28.61723709,-102.3949661,4.632992744,0.959112465,8.164423943,-1.571896553,38.24421692,-0.330654591,-1.238769531,-0.3125,-1.179199219, 
567,573028105,5.11035347,-28.20044327,-102.3223572,4.885910511,0.904045463,7.70624876,-4.261065006,49.10206985,3.577484131,-1.234863281,-0.311523438,-1.184570313, 
568,573036438,5.032679558,-27.68242073,-102.2350616,4.628727436,0.724749148,7.988335133,-3.139700413,61.34158707,4.155909538,-1.229003906,-0.309570313,-1.192871094, 
569,573044771,4.945314884,-27.07711983,-102.1442261,4.557738781,0.762111366,8.149551392,-4.206158638,71.80560303,3.759431362,-1.227050781,-0.311523438,-1.200195313, 
570,573053104,4.846013069,-26.37164307,-102.0483398,4.469929695,0.680760145,8.202927589,-5.469109058,83.83029175,3.445328236,-1.219726563,-0.311035156,-1.20703125, 
571,573061437,4.753335476,-25.57471466,-101.9562531,4.23688364,0.587195098,8.37008667,-5.01712513,94.73065186,2.333872318,-1.209960938,-0.30859375,-1.21875, 
572,573069770,4.661023617,-24.63656425,-101.8860245,4.168706894,0.637558579,8.533511162,-6.229373932,111.4295654,-1.202345371,-1.202636719,-0.310546875,-1.23046875, 
573,573078103,4.574644566,-23.66170692,-101.8199844,4.148051739,0.744014621,8.451794624,-5.85748148,115.7903671,-1.772244453,-1.193359375,-0.307617188,-1.242675781, 
574,573086436,4.514071941,-22.72115326,-101.7616119,4.127651691,0.616274714,8.61888504,-3.235907316,111.6272507,-2.09378171,-1.183105469,-0.309570313,-1.256835938, 
575,573094769,4.46507597,-21.79727936,-101.7172165,3.808793545,0.598438382,8.807274818,-2.597887278,109.5146484,-3.328310728,-1.173339844,-0.309082031,-1.269042969, 
576,573103102,4.421198845,-20.86711693,-101.6899567,3.517181396,0.628949344,8.821297646,-2.802265644,110.1247635,-5.180956841,-1.165039063,-0.306152344,-1.280761719, 
577,573111435,4.376194954,-19.8862915,-101.6737289,3.394304752,0.728274763,8.778966904,-3.456900358,116.0979614,-6.76886034,-1.153808594,-0.30859375,-1.291015625, 
578,573119768,4.334338665,-18.96319199,-101.6528549,3.042602062,0.787432075,8.550059319,-2.916646719,109.2367554,-5.625329494,-1.141113281,-0.311035156,-1.302246094, 
579,573128101,4.325680733,-18.24757767,-101.6190414,3.074632645,0.726718605,8.651760101,1.520022273,84.52398682,-2.215466022,-1.132324219,-0.311523438,-1.308105469, 
580,573136434,4.325774193,-17.61385536,-101.5736618,3.117646217,0.720794559,8.943577766,2.961007595,74.82509613,-0.139188454,-1.126464844,-0.310058594,-1.313476563, 
581,573144767,4.310109138,-16.93311882,-101.5310059,2.735109806,0.676766753,9.066915512,0.905186653,80.42996979,-0.842520952,-1.118164063,-0.305664063,-1.325195313, 
582,573153100,4.282860279,-16.1808548,-101.5124512,2.571727991,0.654594362,9.066425323,-1.361943841,88.78318787,-4.205861092,-1.109863281,-0.308105469,-1.330566406, 
583,573161433,4.248220444,-15.32808495,-101.5173569,2.552577257,0.70689261,9.12001133,-3.052219152,100.6123657,-7.740895271,-1.101074219,-0.306640625,-1.341308594, 
584,573169766,4.207791328,-14.43414116,-101.529892,2.300754547,0.654656947,9.171225548,-3.964238882,105.4796677,-8.929581642,-1.089355469,-0.309082031,-1.352539063, 
585,573178099,4.164224625,-13.50457859,-101.5494537,2.10347724,0.646680534,9.360283852,-4.531168938,109.6886215,-9.981423378,-1.075195313,-0.313476563,-1.362792969, 
586,573186432,4.098132133,-12.48961163,-101.5789719,1.974010587,0.651350915,9.329119682,-7.454683781,119.8365479,-11.78398037,-1.065917969,-0.309570313,-1.373535156, 
587,573194765,4.016032219,-11.47245121,-101.6124191,1.842351437,0.747826219,8.917504311,-9.421216011,120.0812454,-12.12104225,-1.052246094,-0.310058594,-1.3828125, 
588,573203098,3.955557585,-10.59400845,-101.637146,1.962151766,0.79370743,8.853999138,-6.551070213,103.5607986,-9.802418709,-1.040527344,-0.312011719,-1.393554688, 
589,573211431,3.915719748,-9.827451706,-101.6354065,1.940886497,0.772439003,9.144518852,-3.446113586,90.40117645,-5.492910385,-1.027832031,-0.30859375,-1.398925781, 
590,573219764,3.882434845,-9.070775032,-101.6218414,1.662153244,0.614096701,9.190935135,-2.454680681,89.30480194,-4.141235828,-1.017089844,-0.309570313,-1.406738281, 
591,573228097,3.846969128,-8.237711906,-101.6011963,1.638891101,0.637110293,9.269389153,-2.586496592,98.52535248,-3.650136709,-1.007324219,-0.310546875,-1.415527344, 
592,573236430,3.803498983,-7.332084179,-101.5713806,1.396642566,0.649909973,9.389447212,-3.458251476,107.2749176,-3.281255245,-0.995117188,-0.310546875,-1.424316406, 
593,573244763,3.771497726,-6.540629387,-101.5381241,1.34149313,0.740707695,9.433057785,-2.066611052,93.65046692,-1.656908035,-0.983886719,-0.307128906,-1.43359375, 
594,573253096,3.770068169,-5.933196545,-101.4967346,1.453189492,0.640923142,9.383207321,1.64143157,71.66317749,0.566269279,-0.972167969,-0.308105469,-1.440429688, 
595,573261429,3.785835505,-5.377586365,-101.4500885,1.140790105,0.577424407,9.395875931,3.732712507,65.51778412,1.847062469,-0.966796875,-0.310546875,-1.442382813, 
596,573269762,3.793260813,-4.763124943,-101.4007034,0.692771554,0.609747171,9.411581039,2.687726736,72.56733704,1.447095513,-0.956542969,-0.30859375,-1.447265625, 
597,573278095,3.784930706,-4.100169659,-101.3650894,0.431255698,0.621479809,9.472108841,0.614796102,78.28696442,-0.312610596,-0.94921875,-0.311523438,-1.452636719, 
598,573286428,3.774147749,-3.495071888,-101.3326874,0.503633499,0.693745434,9.550321579,0.238187835,71.31463623,-0.485327899,-0.940429688,-0.307128906,-1.459960938, 
599,573294761,3.762376785,-2.920666456,-101.3042068,0.518259346,0.633426249,9.484401703,0.057657875,67.62784576,-0.413607538,-0.934082031,-0.307128906,-1.462890625, 
600,573303094,3.743758202,-2.258502245,-101.2819061,0.300906539,0.527623832,9.366351128,-0.84025383,78.06859589,-2.10468173,-0.923339844,-0.310058594,-1.470214844, 
601,573311427,3.710959673,-1.441333771,-101.2783051,0.050949611,0.431500256,9.368141174,-2.649020195,96.50583649,-5.223809242,-0.911621094,-0.308105469,-1.477539063, 
602,573319760,3.657460451,-0.469419867,-101.2878418,-0.071336806,0.452046126,9.433300018,-5.165003777,114.9205856,-8.206729889,-0.898925781,-0.309570313,-1.480957031, 
603,573328093,3.586472273,0.559221447,-101.3183136,-0.118680537,0.555071771,9.281344414,-7.253008842,121.5836945,-10.72501183,-0.883789063,-0.30859375,-1.486816406, 
604,573336426,3.516161203,1.55567348,-101.3525543,-0.090048,0.53170836,9.331581116,-7.088646889,117.6954575,-11.07614136,-0.868652344,-0.307617188,-1.496582031, 
605,573344759,3.433728456,2.561016083,-101.3765106,-0.190811649,0.557562232,9.566683769,-8.535460472,118.8697281,-9.445930481,-0.853515625,-0.309570313,-1.504394531, 
606,573353092,3.330271959,3.588477373,-101.3876266,-0.614504695,0.560799241,9.354241371,-11.06997871,121.608284,-8.172842026,-0.838378906,-0.310546875,-1.510253906, 
607,573361425,3.22671628,4.479353905,-101.3975372,-0.835217059,0.724130213,9.21115303,-11.1026516,105.2867126,-6.541761875,-0.822753906,-0.305175781,-1.518066406, 
608,573369758,3.161798239,5.10435915,-101.3993073,-0.506595254,0.831655324,9.320282936,-6.498938084,73.47639465,-3.960760593,-0.815429688,-0.303710938,-1.523925781, 
609,573378091,3.126668692,5.609279633,-101.3825073,-0.425944597,0.691356599,9.46668148,-3.169182539,59.23171616,-0.57168591,-0.803710938,-0.304199219,-1.524414063, 
610,573386424,3.089063644,6.155570507,-101.3523178,-1.040284157,0.516347766,9.426288605,-3.610697985,64.25795746,0.476874739,-0.795898438,-0.303222656,-1.529296875, 
611,573394757,3.037696838,6.736196041,-101.3274689,-1.359726906,0.522257268,9.452609062,-5.272161007,68.35523987,-0.012640676,-0.787109375,-0.303222656,-1.529296875, 
612,573403090,2.975923061,7.315027714,-101.3046951,-1.337596536,0.564898074,9.442399025,-6.47331953,68.11105347,-0.5053581,-0.78125,-0.302734375,-1.537109375, 
613,573411423,2.911198616,7.877837658,-101.2803421,-1.394621611,0.503818035,9.26033783,-6.933965683,66.2179184,0.179121032,-0.768554688,-0.300292969,-1.540527344, 
614,573419756,2.838549137,8.478640556,-101.2491455,-1.481285095,0.427180111,9.250085831,-7.977076054,70.79600525,0.512952983,-0.759765625,-0.299804688,-1.545898438, 
615,573428089,2.740777731,9.195537567,-101.2182083,-1.610720277,0.379979491,9.319637299,-11.08972836,84.72457886,0.230363101,-0.751464844,-0.298339844,-1.548828125, 
616,573436422,2.618931532,10.06272221,-101.1744766,-1.847883582,0.341680795,9.538816452,-14.22597408,102.7958145,0.732868671,-0.739746094,-0.296386719,-1.550292969, 
617,573444755,2.464283705,11.05771065,-101.1311798,-2.035084009,0.343801379,9.481509209,-18.24757957,118.1122055,0.235513031,-0.721191406,-0.296875,-1.555664063, 
618,573453088,2.295498371,12.08881092,-101.0918808,-1.977774382,0.350722015,9.276368141,-19.92588997,122.4230118,-0.094440959,-0.709472656,-0.291503906,-1.557128906, 
619,573461421,2.133013964,13.15212631,-101.0512314,-1.908058167,0.293391556,9.148468971,-19.30247116,126.2913742,0.25902766,-0.693359375,-0.290527344,-1.568847656, 
620,573469754,1.968427658,14.29531193,-101.0064697,-2.195266247,0.213881448,9.120787621,-19.75039101,135.8877563,0.735076785,-0.675292969,-0.288085938,-1.571777344, 
621,573478087,1.788034558,15.44475842,-100.9596634,-2.647450686,0.332902908,9.012346268,-21.82610321,136.6421661,1.332205892,-0.655761719,-0.284667969,-1.57421875, 
622,573486420,1.611436725,16.30443764,-100.9370117,-2.815588474,0.614439249,8.559098244,-20.66235352,101.798996,-0.015317458,-0.636230469,-0.276855469,-1.581054688, 
623,573494753,1.516812682,16.77516937,-100.9361572,-2.455952644,0.582248211,8.781375885,-10.12062359,55.07305527,-1.014787555,-0.631347656,-0.278808594,-1.580566406, 
624,573503086,1.472922206,17.09642029,-100.9212265,-2.626862288,0.357472152,8.99721241,-4.515180111,37.18447495,1.136261582,-0.622558594,-0.278320313,-1.583496094, 
625,573511419,1.423689604,17.4339962,-100.9097137,-3.129549742,0.168481439,8.945052147,-5.05538559,39.13287354,0.725255132,-0.619628906,-0.277832031,-1.583496094, 
626,573519752,1.3592875,17.76220322,-100.918045,-3.205506086,0.26209715,8.931095123,-6.152162552,37.95362091,-1.479300737,-0.612304688,-0.274414063,-1.583496094, 
627,573528085,1.304111004,18.039217,-100.9362564,-3.063738108,0.283540785,8.999731064,-4.687972546,31.78502655,-2.422903776,-0.606933594,-0.276855469,-1.586425781, 
628,573536418,1.25566268,18.30837631,-100.9545517,-3.10639143,0.198975429,8.948616982,-3.853664398,30.84861755,-2.378078461,-0.600585938,-0.274902344,-1.590820313, 
629,573544751,1.204550862,18.60375786,-100.977356,-3.272622347,0.156907588,8.964254379,-4.005609512,33.98322296,-2.927863836,-0.596679688,-0.270507813,-1.588378906, 
630,573553084,1.152399778,18.89875793,-100.9914322,-3.310220242,0.215167508,9.11111927,-4.441615105,33.96273041,-1.89563477,-0.588867188,-0.271484375,-1.590332031, 
631,573561417,1.104847789,19.15591431,-100.9919968,-3.36411047,0.220191807,8.935947418,-4.420790195,29.45207596,-0.246024907,-0.583496094,-0.271484375,-1.58984375, 
632,573569750,1.058737278,19.42916298,-100.9903641,-3.394349813,0.120056644,8.859801292,-4.324262619,31.3909111,-0.00490513,-0.5859375,-0.272460938,-1.592773438, 
633,573578083,0.992892206,19.75823784,-100.9837036,-3.514424562,0.17464897,8.882614136,-6.9069767,38.09640503,0.473402858,-0.577148438,-0.272460938,-1.592285156, 
634,573586416,0.913793862,20.05972099,-100.9857178,-3.372313976,0.211995646,8.668227196,-8.135910034,34.77291107,-0.399761796,-0.572753906,-0.268066406,-1.590332031, 
635,573594749,0.853402615,20.28710747,-100.9925919,-3.168825626,0.25268662,8.658965111,-5.701527596,25.8705883,-0.764892817,-0.568847656,-0.268066406,-1.593261719, 
636,573603082,0.810720921,20.46560287,-100.999733,-3.261036158,0.172775328,8.678265572,-3.548712254,20.00882149,-0.684655905,-0.564941406,-0.267578125,-1.595703125, 
637,573611415,0.773596764,20.6280365,-101.0065308,-3.345934868,0.142785713,8.703001976,-2.906204224,18.07868195,-0.60758251,-0.5625,-0.266601563,-1.596679688, 
638,573619748,0.739343166,20.76996231,-101.0082169,-3.363580942,0.159357846,8.749536514,-2.764160872,15.63038635,0.015227667,-0.561523438,-0.266601563,-1.597167969, 
639,573628081,0.712041199,20.86985779,-101.0050812,-3.457300663,0.162827998,8.754544258,-2.147779465,10.58940029,0.62784344,-0.558105469,-0.268554688,-1.597167969, 
640,573636414,0.692376196,20.90572929,-101.0002975,-3.514355898,0.13299045,8.825415611,-1.290522099,2.91296649,0.914159238,-0.559082031,-0.262695313,-1.598144531, 
641,573644747,0.674979448,20.8975029,-100.991806,-3.591076612,0.122349247,8.884414673,-1.189243317,-2.377487421,1.389456987,-0.557128906,-0.265625,-1.596191406, 
642,573653080,0.654940248,20.89655113,-100.9876709,-3.598581791,0.066382825,8.930109024,-1.307107329,-1.505361557,0.89583236,-0.557128906,-0.263671875,-1.595703125, 
643,573661413,0.629733324,20.91685104,-100.9902267,-3.581500292,0.101972982,8.922127724,-1.654372215,1.03019166,0.114738978,-0.55859375,-0.266113281,-1.596191406, 
644,573669746,0.611946344,20.90275192,-100.9895782,-3.555749893,0.187474161,8.890867233,-0.887379527,-3.088001013,0.521160007,-0.558105469,-0.265625,-1.597167969, 
645,573678079,0.609801352,20.81421661,-100.9831009,-3.531496763,0.19319813,8.846510887,0.727956533,-12.01946735,1.267597318,-0.557617188,-0.263671875,-1.594726563, 
646,573686412,0.620899975,20.62783813,-100.9700623,-3.532918215,0.23513636,8.693771362,2.052085161,-23.7462101,2.133410215,-0.5625,-0.264648438,-1.595214844, 
647,573694745,0.650030911,20.30880737,-100.9582825,-3.402237177,0.212732866,8.674505234,4.264725208,-39.66952896,2.177264452,-0.562988281,-0.265136719,-1.598144531, 
648,573703078,0.695381165,19.85871315,-100.9426193,-3.440155506,0.144167989,8.825026512,6.070141792,-55.3866272,2.829138517,-0.569824219,-0.264648438,-1.595214844, 
649,573711411,0.747965097,19.29975891,-100.9288864,-3.446644783,0.129364118,8.845830917,7.02144289,-68.45464325,2.822636604,-0.580566406,-0.266601563,-1.595214844, 
650,573719744,0.800573111,18.68171883,-100.9327011,-3.319766283,0.100413367,8.875668526,7.734833241,-75.56278229,1.003327489,-0.591308594,-0.268066406,-1.592285156, 
651,573728077,0.850500405,18.02330208,-100.9537659,-3.120085955,0.181264848,8.874917984,8.04924202,-80.4417572,-0.833735347,-0.601074219,-0.266601563,-1.591308594, 
652,573736410,0.92083621,17.30409241,-100.955658,-2.839759588,0.220499724,9.056196213,9.783769608,-87.69708252,1.548122048,-0.612792969,-0.269042969,-1.586425781, 
653,573744743,1.001217961,16.53820801,-100.9405899,-2.81006813,0.221916914,9.19226265,10.38151836,-93.27089691,3.699531555,-0.625488281,-0.268066406,-1.583496094, 
654,573753076,1.086205959,15.69606876,-100.9312515,-2.809869051,0.155374378,9.030350685,11.16167355,-102.4201813,3.346927881,-0.635253906,-0.271972656,-1.5859375, 
655,573761409,1.183469057,14.78799343,-100.9380646,-2.532466888,0.208436042,9.073184013,13.14730358,-110.3712921,1.799893618,-0.649902344,-0.272460938,-1.579589844, 
656,573769742,1.282943249,13.8722229,-100.9460907,-2.374878407,0.248427123,8.988959312,13.45093822,-111.2868118,1.86231637,-0.668945313,-0.270507813,-1.573242188, 
657,573778075,1.383226395,12.92749786,-100.9579391,-2.482791662,0.261351466,9.071856499,13.62456322,-114.7760544,1.68486011,-0.682617188,-0.275390625,-1.5703125, 
658,573786408,1.473183274,11.96706009,-100.9807968,-2.319146633,0.211108878,9.204873085,12.6592865,-116.6835785,0.628619373,-0.695800781,-0.276855469,-1.568359375, 
659,573794741,1.547453284,10.95378971,-101.0168228,-2.17241168,0.264816761,9.063692093,11.03409386,-123.0697937,-0.60344106,-0.714355469,-0.280761719,-1.562988281, 
660,573803074,1.634612918,9.835287094,-101.0664673,-1.838714242,0.191929042,9.155237198,12.80822372,-135.7320862,-1.700083017,-0.728515625,-0.280273438,-1.561035156, 
661,573811407,1.723661661,8.637998581,-101.1184387,-1.841585755,0.264968336,9.350893974,12.94798183,-145.2035217,-1.513842344,-0.745605469,-0.282226563,-1.551757813, 
662,573819740,1.822508574,7.321547985,-101.1789703,-1.543452263,0.332950383,9.190546036,14.14383411,-159.522049,-1.87317276,-0.765625,-0.283691406,-1.547363281, 
663,573828073,1.945183277,5.921425819,-101.2360306,-0.972574115,0.397188991,9.497471809,16.7265873,-169.5457001,-0.453229845,-0.787109375,-0.28515625,-1.540527344, 
664,573836406,2.065220594,4.598810196,-101.2714081,-0.566735089,0.305787355,9.358082771,16.06890678,-160.1654663,1.758290887,-0.808105469,-0.284179688,-1.53125, 
665,573844739,2.172406673,3.42200613,-101.2976837,-0.723872006,0.294768393,9.393809319,14.31730938,-142.6326141,2.892488718,-0.826660156,-0.286132813,-1.521484375, 
666,573853072,2.271241426,2.336439371,-101.3348618,-0.658369899,0.372542888,9.42130661,13.35795212,-131.7441101,1.02768445,-0.846191406,-0.2890625,-1.516113281, 
667,573861405,2.370491028,1.280471802,-101.3808823,-0.31856367,0.447882771,9.454708099,13.33574772,-128.2301025,0.393273979,-0.860351563,-0.291015625,-1.506347656, 
668,573869738,2.470798016,0.192498907,-101.4175262,-0.147795856,0.466502249,9.499258041,13.36749363,-132.0264587,1.551619053,-0.877441406,-0.293457031,-1.49609375, 
669,573878071,2.564730406,-0.909570456,-101.4539948,0.080838934,0.40429166,9.476800919,12.50823212,-133.7096558,2.194982767,-0.892578125,-0.295898438,-1.489746094, 
670,573886404,2.653566837,-1.955498576,-101.48452,0.156188339,0.366474688,9.354820251,11.84343529,-126.94767,2.485576868,-0.907226563,-0.296875,-1.482910156, 
671,573894737,2.736306906,-2.964513063,-101.5175781,0.15374893,0.485857725,9.310258865,11.03320885,-122.5292664,2.474995375,-0.921386719,-0.296386719,-1.47265625, 
672,573903070,2.821852922,-3.998200655,-101.5499039,0.555221319,0.487446964,9.309650421,11.30419254,-125.4851379,2.577686071,-0.938964844,-0.297363281,-1.46484375, 
673,573911403,2.91069746,-4.999922276,-101.5748825,0.884653926,0.462908864,9.406596184,11.71114922,-121.6007004,3.751574516,-0.951171875,-0.298339844,-1.457519531, 
674,573919736,2.990339279,-5.930639744,-101.5913391,0.965936899,0.493700951,9.495744705,10.64282322,-113.0394669,4.217009068,-0.965820313,-0.297363281,-1.445800781, 
675,573928069,3.069652796,-6.867571831,-101.6201324,1.13142693,0.527824342,9.320790291,10.42388439,-113.8520966,3.202021122,-0.978027344,-0.301269531,-1.436523438, 
676,573936402,3.168646574,-7.861487389,-101.6519089,1.451040387,0.531233132,9.393187523,12.66423798,-120.6990585,3.143278599,-0.990722656,-0.298828125,-1.430175781, 
677,573944735,3.259268999,-8.808636665,-101.6877823,1.579556823,0.541095436,9.44619751,11.54755878,-115.1148376,2.787591696,-1.006347656,-0.30078125,-1.421386719, 
678,573953068,3.328845024,-9.657566071,-101.7211075,1.475332499,0.548837662,9.323340416,8.980500221,-103.3297501,2.341765165,-1.012695313,-0.305175781,-1.41015625, 
679,573961401,3.399175644,-10.51493168,-101.755127,1.630065322,0.666568458,9.225954056,8.98654747,-104.3510056,2.458465338,-1.025878906,-0.303222656,-1.401855469, 
680,573969734,3.474044323,-11.38194561,-101.7827072,1.956872463,0.608943522,9.400087357,9.62985611,-105.4487228,3.422312975,-1.038574219,-0.303222656,-1.395019531, 
681,573978067,3.52609992,-12.20927715,-101.8028412,1.892999887,0.617168009,9.377523422,7.053109169,-100.6368027,4.320686817,-1.049804688,-0.306152344,-1.384277344, 
682,573986400,3.578990698,-13.10009766,-101.8098755,2.074501276,0.619134367,9.078122139,7.436349869,-108.1438751,6.230547905,-1.061523438,-0.306152344,-1.374511719, 
683,573994733,3.641132116,-14.02948284,-101.8150101,2.412649155,0.483962953,9.198487282,8.574514389,-112.7505493,6.860620499,-1.072265625,-0.301269531,-1.364746094, 
684,574003066,3.698533773,-15.00184631,-101.821907,2.254921436,0.485685766,9.103118896,7.953997135,-117.8967056,7.099547386,-1.083496094,-0.3046875,-1.355957031, 
685,574011399,3.764968157,-16.05870247,-101.8467255,2.391296387,0.491071701,9.127809525,8.437298775,-128.1496429,5.826298714,-1.09765625,-0.303222656,-1.347167969, 
686,574019732,3.822346687,-17.08068466,-101.8684006,3.070451736,0.709878802,8.972066879,7.417599201,-123.9344254,6.05807972,-1.110351563,-0.307128906,-1.336425781, 
687,574028065,3.849858284,-17.95119858,-101.8756561,2.988414049,0.673257709,8.943366051,4.30161953,-105.6915741,6.595934868,-1.119140625,-0.3046875,-1.322265625, 
688,574036398,3.859150887,-18.75191689,-101.8839569,2.952636957,0.660448551,8.932881355,2.073707342,-97.33244324,5.945663929,-1.129882813,-0.304199219,-1.314941406, 
689,574044731,3.862319946,-19.56364441,-101.8913727,3.237374306,0.682576358,8.738884926,1.350637317,-98.64971161,6.154730797,-1.141113281,-0.303710938,-1.305175781, 
690,574053064,3.86466527,-20.41810989,-101.887291,3.430983305,0.649005592,8.793449402,1.722407103,-103.6713409,7.795523167,-1.151367188,-0.305175781,-1.294921875, 
691,574061397,3.847486496,-21.24341774,-101.8806229,3.492720842,0.607134283,8.72694397,-0.515503883,-100.1691818,7.843327522,-1.157226563,-0.303710938,-1.286621094, 
692,574069730,3.813766003,-21.98157692,-101.8720169,3.575867891,0.662371457,8.432762146,-2.393001318,-89.71685791,7.304988384,-1.16796875,-0.302246094,-1.275878906, 
693,574078063,3.78275609,-22.6814537,-101.8429337,3.696905375,0.723588288,8.38895607,-1.132873774,-84.99375153,9.221529961,-1.174804688,-0.301757813,-1.266601563, 
694,574086396,3.758707762,-23.36254883,-101.8032074,3.727384329,0.641048372,8.531434059,0.251097888,-82.66555023,10.18261719,-1.182128906,-0.299804688,-1.258789063, 
695,574094729,3.737841606,-24.07929993,-101.7577209,3.797964811,0.571330547,8.45693779,0.952804804,-86.90595245,11.04534245,-1.19140625,-0.297851563,-1.249511719, 
696,574103062,3.729288816,-24.85479546,-101.7098541,4.106705189,0.547666192,8.538011551,2.62622261,-93.92010498,11.70922947,-1.197753906,-0.294433594,-1.241210938, 
697,574111395,3.723776579,-25.61353683,-101.6771774,4.157842636,0.483838558,8.477705956,2.272819281,-92.03279877,9.897286415,-1.208007813,-0.295410156,-1.234375, 
698,574119728,3.7254107,-26.32596016,-101.6690216,4.1710639,0.481878579,8.33784771,1.898796082,-86.65137482,6.861562252,-1.213378906,-0.293945313,-1.223632813, 
699,574128061,3.729037523,-26.99383354,-101.6715469,4.464586258,0.575096786,8.261439323,1.561580896,-81.39784241,5.377842903,-1.224609375,-0.297363281,-1.215332031, 
700,574136394,3.741282225,-27.64120293,-101.6812363,4.635533333,0.531849384,8.301028252,2.207562208,-78.98640442,4.45998764,-1.23046875,-0.293457031,-1.203613281, 
701,574144727,3.752000093,-28.26240349,-101.7000275,4.630696297,0.504777789,8.384573936,1.492690086,-75.91854095,3.320300817,-1.235351563,-0.293945313,-1.197753906, 
702,574153060,3.75315094,-28.84856415,-101.7105713,4.753096104,0.607592404,8.359746933,0.806903243,-71.66048431,3.925783634,-1.237304688,-0.296386719,-1.189941406, 
703,574161393,3.738573313,-29.37999344,-101.7095947,4.792910576,0.646261454,8.365143776,-0.431166053,-65.03232574,4.707517147,-1.244628906,-0.293945313,-1.184570313, 
704,574169726,3.722853899,-29.86943817,-101.7026596,4.952831268,0.617721796,8.141231537,-0.200278357,-59.95997238,4.973647118,-1.250488281,-0.29296875,-1.174804688, 
705,574178059,3.726495266,-30.3465271,-101.6985397,5.119631767,0.570729196,8.123120308,1.946636558,-58.50516891,4.583450317,-1.254882813,-0.29296875,-1.16796875, 
706,574186392,3.741700172,-30.80504417,-101.7058105,5.162876606,0.456386805,7.973828316,2.652361631,-56.35320282,3.261725903,-1.257324219,-0.293457031,-1.162109375, 
707,574194725,3.76503253,-31.23464394,-101.7209549,5.181555271,0.531721652,7.874795914,3.125930548,-52.94483185,2.25978303,-1.262207031,-0.293457031,-1.154785156, 
708,574203058,3.792149305,-31.6303978,-101.7348938,5.247625828,0.55691576,7.841607094,3.655210257,-48.87866974,2.134489775,-1.264160156,-0.291015625,-1.150390625, 
709,574211391,3.816116333,-31.98491859,-101.7463989,5.135639191,0.529835343,7.868249416,3.410528421,-43.92733383,2.088703394,-1.270019531,-0.290527344,-1.146972656, 
710,574219724,3.834954023,-32.30036926,-101.7686539,5.036808014,0.492255539,7.874382973,2.113010883,-39.32028961,0.699231207,-1.274902344,-0.295898438,-1.140625, 
711,574228057,3.860556602,-32.61800766,-101.7979813,5.192407608,0.507268488,7.793304443,2.446892977,-39.62868118,0.035411734,-1.271972656,-0.290527344,-1.133300781, 
712,574236390,3.8957932,-32.93732834,-101.83078,5.303528786,0.508990765,7.781868935,3.370082378,-39.85201263,-0.280783623,-1.273925781,-0.290039063,-1.134765625, 
713,574244723,3.934189081,-33.23921967,-101.8736877,5.316671371,0.529934466,7.806550026,3.05986762,-37.83721542,-1.393979669,-1.278808594,-0.291503906,-1.127929688, 
714,574253056,3.973296642,-33.53031921,-101.9267807,5.410972595,0.535494149,7.752121449,2.460416555,-36.61297989,-2.467344999,-1.280273438,-0.291992188,-1.122070313, 
715,574261389,4.018030643,-33.80023575,-101.9954605,5.559634686,0.52925247,7.687273502,2.063011169,-34.18920135,-4.1472826,-1.285644531,-0.293945313,-1.118164063, 
716,574269722,4.055546284,-34.01602554,-102.0656052,5.574069023,0.630373359,7.688146591,1.080780506,-27.71974182,-4.715558052,-1.283691406,-0.293945313,-1.117675781, 
717,574278055,4.081680298,-34.18804169,-102.1217499,5.562630177,0.652201831,7.608899593,0.62062037,-22.38457298,-3.66112113,-1.290039063,-0.294921875,-1.115234375, 
718,574286388,4.101928711,-34.31153488,-102.1613235,5.65104723,0.66603142,7.556287289,1.030025482,-16.45936584,-2.428601503,-1.286621094,-0.295898438,-1.109375, 
719,574294721,4.111614227,-34.35015488,-102.184082,5.612234116,0.661545157,7.546352863,0.883998394,-6.179369926,-1.481898546,-1.286132813,-0.294433594,-1.106933594, 
720,574303054,4.104617596,-34.28214264,-102.202507,5.555291176,0.61567831,7.548279285,-0.811791897,6.613082886,-1.972603321,-1.286621094,-0.294921875,-1.109375, 
721,574311387,4.083204269,-34.11651611,-102.2200851,5.606075287,0.597708762,7.655394077,-2.494097233,18.30460358,-2.724215746,-1.288574219,-0.296875,-1.110839844, 
722,574319720,4.045399666,-33.85636139,-102.229599,5.600138664,0.570259869,7.692929268,-3.901460409,29.67607307,-2.72527957,-1.282226563,-0.293457031,-1.114746094, 
723,574328053,3.996434212,-33.52772522,-102.2358398,5.357931614,0.451121628,7.602404594,-5.029412746,37.90167618,-2.950046539,-1.284179688,-0.296386719,-1.120117188, 
724,574336386,3.943481445,-33.12798691,-102.2433472,5.479490757,0.573664427,7.642533779,-5.576895237,46.40473938,-3.642145872,-1.275878906,-0.293945313,-1.122558594, 
725,574344719,3.87840867,-32.63825607,-102.2464218,5.367976189,0.552962899,7.649315834,-6.745440006,57.21504974,-3.877891541,-1.274414063,-0.293945313,-1.133789063, 
726,574353052,3.817950726,-32.14001465,-102.2388306,5.219390392,0.592077494,7.639727116,-5.493450642,58.31128693,-2.813834667,-1.270507813,-0.295898438,-1.139648438, 
